Row,prolific_pid,block,correct_input,rt,srt_input_pressed,srt_sequence_index,srt_trial_index,trial_index,trial_type,was_input_correct,responses,experiment,useragent,survey_part
1,5b31c0811d2f710001fb83db,NULL,NULL,8575,NULL,NULL,NULL,0,html-button-response,NULL,NULL,NULL,"Mozilla/5.0 (Windows NT 6.1) AppleWebKit/537.36 (KHTML, like Gecko) Chrome/68.0.3440.106 Safari/537.36",NULL
2,5b31c0811d2f710001fb83db,1,3,550,3,1,1,1,unity-loader,1,NULL,"Level 1",NULL,NULL
3,5b31c0811d2f710001fb83db,1,1,501,0,2,2,1,unity-loader,0,NULL,"Level 1",NULL,NULL
4,5b31c0811d2f710001fb83db,1,1,2250,1,2,2,1,unity-loader,1,NULL,"Level 1",NULL,NULL
5,5b31c0811d2f710001fb83db,1,3,466,3,3,3,1,unity-loader,1,NULL,"Level 1",NULL,NULL
6,5b31c0811d2f710001fb83db,1,2,550,2,4,4,1,unity-loader,1,NULL,"Level 1",NULL,NULL
7,5b31c0811d2f710001fb83db,1,0,599,0,5,5,1,unity-loader,1,NULL,"Level 1",NULL,NULL
8,5b31c0811d2f710001fb83db,1,1,334,2,6,6,1,unity-loader,0,NULL,"Level 1",NULL,NULL
9,5b31c0811d2f710001fb83db,1,1,1700,1,6,6,1,unity-loader,1,NULL,"Level 1",NULL,NULL
10,5b31c0811d2f710001fb83db,1,0,566,0,7,7,1,unity-loader,1,NULL,"Level 1",NULL,NULL
11,5b31c0811d2f710001fb83db,1,2,635,2,8,8,1,unity-loader,1,NULL,"Level 1",NULL,NULL
12,5b31c0811d2f710001fb83db,1,1,632,1,9,9,1,unity-loader,1,NULL,"Level 1",NULL,NULL
13,5b31c0811d2f710001fb83db,1,0,567,0,10,10,1,unity-loader,1,NULL,"Level 1",NULL,NULL
14,5b31c0811d2f710001fb83db,1,3,468,3,11,11,1,unity-loader,1,NULL,"Level 1",NULL,NULL
15,5b31c0811d2f710001fb83db,1,2,385,1,12,12,1,unity-loader,0,NULL,"Level 1",NULL,NULL
16,5b31c0811d2f710001fb83db,1,2,1450,2,12,12,1,unity-loader,1,NULL,,NULL,NULL
17,5b31c0811d2f710001fb83db,2,3,382,3,1,1,1,unity-loader,1,NULL,"Level 1",NULL,NULL
18,5b31c0811d2f710001fb83db,2,1,534,1,2,2,1,unity-loader,1,NULL,"Level 1",NULL,NULL
19,5b31c0811d2f710001fb83db,2,3,317,3,3,3,1,unity-loader,1,NULL,"Level 1",NULL,NULL
20,5b31c0811d2f710001fb83db,2,2,418,2,4,4,1,unity-loader,1,NULL,"Level 1",NULL,NULL
21,5b31c0811d2f710001fb83db,2,0,416,0,5,5,1,unity-loader,1,NULL,"Level 1",NULL,NULL
22,5b31c0811d2f710001fb83db,2,1,350,2,6,6,1,unity-loader,0,NULL,"Level 1",NULL,NULL
23,5b31c0811d2f710001fb83db,2,1,1483,1,6,6,1,unity-loader,1,NULL,"Level 1",NULL,NULL
24,5b31c0811d2f710001fb83db,2,0,335,1,7,7,1,unity-loader,0,NULL,"Level 1",NULL,NULL
25,5b31c0811d2f710001fb83db,2,0,1733,0,7,7,1,unity-loader,1,NULL,"Level 1",NULL,NULL
26,5b31c0811d2f710001fb83db,2,2,233,3,8,8,1,unity-loader,0,NULL,"Level 1",NULL,NULL
27,5b31c0811d2f710001fb83db,2,2,1449,2,8,8,1,unity-loader,1,NULL,"Level 1",NULL,NULL
28,5b31c0811d2f710001fb83db,2,1,400,1,9,9,1,unity-loader,1,NULL,"Level 1",NULL,NULL
29,5b31c0811d2f710001fb83db,2,0,449,0,10,10,1,unity-loader,1,NULL,"Level 1",NULL,NULL
30,5b31c0811d2f710001fb83db,2,3,282,3,11,11,1,unity-loader,1,NULL,"Level 1",NULL,NULL
31,5b31c0811d2f710001fb83db,2,2,401,2,12,12,1,unity-loader,1,NULL,,NULL,NULL
32,5b31c0811d2f710001fb83db,3,3,385,3,1,1,1,unity-loader,1,NULL,"Level 1",NULL,NULL
33,5b31c0811d2f710001fb83db,3,1,384,1,2,2,1,unity-loader,1,NULL,"Level 1",NULL,NULL
34,5b31c0811d2f710001fb83db,3,3,349,3,3,3,1,unity-loader,1,NULL,"Level 1",NULL,NULL
35,5b31c0811d2f710001fb83db,3,2,402,2,4,4,1,unity-loader,1,NULL,"Level 1",NULL,NULL
36,5b31c0811d2f710001fb83db,3,0,284,0,5,5,1,unity-loader,1,NULL,"Level 1",NULL,NULL
37,5b31c0811d2f710001fb83db,3,1,417,2,6,6,1,unity-loader,0,NULL,"Level 1",NULL,NULL
38,5b31c0811d2f710001fb83db,3,1,1532,1,6,6,1,unity-loader,1,NULL,"Level 1",NULL,NULL
39,5b31c0811d2f710001fb83db,3,0,585,0,7,7,1,unity-loader,1,NULL,"Level 1",NULL,NULL
40,5b31c0811d2f710001fb83db,3,2,367,2,8,8,1,unity-loader,1,NULL,"Level 1",NULL,NULL
41,5b31c0811d2f710001fb83db,3,1,450,1,9,9,1,unity-loader,1,NULL,"Level 1",NULL,NULL
42,5b31c0811d2f710001fb83db,3,0,366,0,10,10,1,unity-loader,1,NULL,"Level 1",NULL,NULL
43,5b31c0811d2f710001fb83db,3,3,435,3,11,11,1,unity-loader,1,NULL,"Level 1",NULL,NULL
44,5b31c0811d2f710001fb83db,3,2,499,2,12,12,1,unity-loader,1,NULL,,NULL,NULL
45,5b31c0811d2f710001fb83db,4,3,318,3,1,1,1,unity-loader,1,NULL,"Level 1",NULL,NULL
46,5b31c0811d2f710001fb83db,4,1,366,1,2,2,1,unity-loader,1,NULL,"Level 1",NULL,NULL
47,5b31c0811d2f710001fb83db,4,3,249,3,3,3,1,unity-loader,1,NULL,"Level 1",NULL,NULL
48,5b31c0811d2f710001fb83db,4,2,316,2,4,4,1,unity-loader,1,NULL,"Level 1",NULL,NULL
49,5b31c0811d2f710001fb83db,4,0,385,0,5,5,1,unity-loader,1,NULL,"Level 1",NULL,NULL
50,5b31c0811d2f710001fb83db,4,1,350,1,6,6,1,unity-loader,1,NULL,"Level 1",NULL,NULL
51,5b31c0811d2f710001fb83db,4,0,334,0,7,7,1,unity-loader,1,NULL,"Level 1",NULL,NULL
52,5b31c0811d2f710001fb83db,4,2,318,2,8,8,1,unity-loader,1,NULL,"Level 1",NULL,NULL
53,5b31c0811d2f710001fb83db,4,1,434,1,9,9,1,unity-loader,1,NULL,"Level 1",NULL,NULL
54,5b31c0811d2f710001fb83db,4,0,317,0,10,10,1,unity-loader,1,NULL,"Level 1",NULL,NULL
55,5b31c0811d2f710001fb83db,4,3,366,3,11,11,1,unity-loader,1,NULL,"Level 1",NULL,NULL
56,5b31c0811d2f710001fb83db,4,2,350,2,12,12,1,unity-loader,1,NULL,,NULL,NULL
57,5b31c0811d2f710001fb83db,5,3,334,3,1,1,1,unity-loader,1,NULL,"Level 1",NULL,NULL
58,5b31c0811d2f710001fb83db,5,1,266,1,2,2,1,unity-loader,1,NULL,"Level 1",NULL,NULL
59,5b31c0811d2f710001fb83db,5,3,283,3,3,3,1,unity-loader,1,NULL,"Level 1",NULL,NULL
60,5b31c0811d2f710001fb83db,5,2,317,2,4,4,1,unity-loader,1,NULL,"Level 1",NULL,NULL
61,5b31c0811d2f710001fb83db,5,0,399,0,5,5,1,unity-loader,1,NULL,"Level 1",NULL,NULL
62,5b31c0811d2f710001fb83db,5,1,267,1,6,6,1,unity-loader,1,NULL,"Level 1",NULL,NULL
63,5b31c0811d2f710001fb83db,5,0,367,0,7,7,1,unity-loader,1,NULL,"Level 1",NULL,NULL
64,5b31c0811d2f710001fb83db,5,2,282,2,8,8,1,unity-loader,1,NULL,"Level 1",NULL,NULL
65,5b31c0811d2f710001fb83db,5,1,398,1,9,9,1,unity-loader,1,NULL,"Level 1",NULL,NULL
66,5b31c0811d2f710001fb83db,5,0,333,0,10,10,1,unity-loader,1,NULL,"Level 1",NULL,NULL
67,5b31c0811d2f710001fb83db,5,3,249,3,11,11,1,unity-loader,1,NULL,"Level 1",NULL,NULL
68,5b31c0811d2f710001fb83db,5,2,318,2,12,12,1,unity-loader,1,NULL,,NULL,NULL
69,5b31c0811d2f710001fb83db,6,3,200,3,1,1,1,unity-loader,1,NULL,"Level 1",NULL,NULL
70,5b31c0811d2f710001fb83db,6,1,217,1,2,2,1,unity-loader,1,NULL,"Level 1",NULL,NULL
71,5b31c0811d2f710001fb83db,6,3,349,3,3,3,1,unity-loader,1,NULL,"Level 1",NULL,NULL
72,5b31c0811d2f710001fb83db,6,2,317,2,4,4,1,unity-loader,1,NULL,"Level 1",NULL,NULL
73,5b31c0811d2f710001fb83db,6,0,367,0,5,5,1,unity-loader,1,NULL,"Level 1",NULL,NULL
74,5b31c0811d2f710001fb83db,6,1,316,1,6,6,1,unity-loader,1,NULL,"Level 1",NULL,NULL
75,5b31c0811d2f710001fb83db,6,0,301,0,7,7,1,unity-loader,1,NULL,"Level 1",NULL,NULL
76,5b31c0811d2f710001fb83db,6,2,317,2,8,8,1,unity-loader,1,NULL,"Level 1",NULL,NULL
77,5b31c0811d2f710001fb83db,6,1,317,1,9,9,1,unity-loader,1,NULL,"Level 1",NULL,NULL
78,5b31c0811d2f710001fb83db,6,0,283,0,10,10,1,unity-loader,1,NULL,"Level 1",NULL,NULL
79,5b31c0811d2f710001fb83db,6,3,265,3,11,11,1,unity-loader,1,NULL,"Level 1",NULL,NULL
80,5b31c0811d2f710001fb83db,6,2,251,1,12,12,1,unity-loader,0,NULL,"Level 1",NULL,NULL
81,5b31c0811d2f710001fb83db,6,2,1434,2,12,12,1,unity-loader,1,NULL,,NULL,NULL
82,5b31c0811d2f710001fb83db,7,3,149,3,1,1,1,unity-loader,1,NULL,"Level 1",NULL,NULL
83,5b31c0811d2f710001fb83db,7,1,363,1,2,2,1,unity-loader,1,NULL,"Level 1",NULL,NULL
84,5b31c0811d2f710001fb83db,7,3,299,3,3,3,1,unity-loader,1,NULL,"Level 1",NULL,NULL
85,5b31c0811d2f710001fb83db,7,2,266,2,4,4,1,unity-loader,1,NULL,"Level 1",NULL,NULL
86,5b31c0811d2f710001fb83db,7,0,217,0,5,5,1,unity-loader,1,NULL,"Level 1",NULL,NULL
87,5b31c0811d2f710001fb83db,7,1,300,1,6,6,1,unity-loader,1,NULL,"Level 1",NULL,NULL
88,5b31c0811d2f710001fb83db,7,0,65,0,7,7,1,unity-loader,1,NULL,"Level 1",NULL,NULL
89,5b31c0811d2f710001fb83db,7,2,202,3,8,8,1,unity-loader,0,NULL,"Level 1",NULL,NULL
90,5b31c0811d2f710001fb83db,7,2,1366,2,8,8,1,unity-loader,1,NULL,"Level 1",NULL,NULL
91,5b31c0811d2f710001fb83db,7,1,284,1,9,9,1,unity-loader,1,NULL,"Level 1",NULL,NULL
92,5b31c0811d2f710001fb83db,7,0,299,0,10,10,1,unity-loader,1,NULL,"Level 1",NULL,NULL
93,5b31c0811d2f710001fb83db,7,3,267,3,11,11,1,unity-loader,1,NULL,"Level 1",NULL,NULL
94,5b31c0811d2f710001fb83db,7,2,217,2,12,12,1,unity-loader,1,NULL,,NULL,NULL
95,5b31c0811d2f710001fb83db,8,3,200,3,1,1,1,unity-loader,1,NULL,"Level 1",NULL,NULL
96,5b31c0811d2f710001fb83db,8,1,216,1,2,2,1,unity-loader,1,NULL,"Level 1",NULL,NULL
97,5b31c0811d2f710001fb83db,8,3,334,3,3,3,1,unity-loader,1,NULL,"Level 1",NULL,NULL
98,5b31c0811d2f710001fb83db,8,2,383,2,4,4,1,unity-loader,1,NULL,"Level 1",NULL,NULL
99,5b31c0811d2f710001fb83db,8,0,383,0,5,5,1,unity-loader,1,NULL,"Level 1",NULL,NULL
100,5b31c0811d2f710001fb83db,8,1,318,1,6,6,1,unity-loader,1,NULL,"Level 1",NULL,NULL
101,5b31c0811d2f710001fb83db,8,0,400,0,7,7,1,unity-loader,1,NULL,"Level 1",NULL,NULL
102,5b31c0811d2f710001fb83db,8,2,282,2,8,8,1,unity-loader,1,NULL,"Level 1",NULL,NULL
103,5b31c0811d2f710001fb83db,8,1,301,1,9,9,1,unity-loader,1,NULL,"Level 1",NULL,NULL
104,5b31c0811d2f710001fb83db,8,0,167,3,10,10,1,unity-loader,0,NULL,"Level 1",NULL,NULL
105,5b31c0811d2f710001fb83db,8,0,1384,0,10,10,1,unity-loader,1,NULL,"Level 1",NULL,NULL
106,5b31c0811d2f710001fb83db,8,3,267,2,11,11,1,unity-loader,0,NULL,"Level 1",NULL,NULL
107,5b31c0811d2f710001fb83db,8,3,1317,3,11,11,1,unity-loader,1,NULL,"Level 1",NULL,NULL
108,5b31c0811d2f710001fb83db,8,2,33,2,12,12,1,unity-loader,1,NULL,,NULL,NULL
109,5b31c0811d2f710001fb83db,9,3,300,3,1,1,1,unity-loader,1,NULL,"Level 1",NULL,NULL
110,5b31c0811d2f710001fb83db,9,1,232,1,2,2,1,unity-loader,1,NULL,"Level 1",NULL,NULL
111,5b31c0811d2f710001fb83db,9,3,266,3,3,3,1,unity-loader,1,NULL,"Level 1",NULL,NULL
112,5b31c0811d2f710001fb83db,9,2,266,2,4,4,1,unity-loader,1,NULL,"Level 1",NULL,NULL
113,5b31c0811d2f710001fb83db,9,0,199,0,5,5,1,unity-loader,1,NULL,"Level 1",NULL,NULL
114,5b31c0811d2f710001fb83db,9,1,333,1,6,6,1,unity-loader,1,NULL,"Level 1",NULL,NULL
115,5b31c0811d2f710001fb83db,9,0,336,0,7,7,1,unity-loader,1,NULL,"Level 1",NULL,NULL
116,5b31c0811d2f710001fb83db,9,2,250,2,8,8,1,unity-loader,1,NULL,"Level 1",NULL,NULL
117,5b31c0811d2f710001fb83db,9,1,333,1,9,9,1,unity-loader,1,NULL,"Level 1",NULL,NULL
118,5b31c0811d2f710001fb83db,9,0,383,0,10,10,1,unity-loader,1,NULL,"Level 1",NULL,NULL
119,5b31c0811d2f710001fb83db,9,3,199,3,11,11,1,unity-loader,1,NULL,"Level 1",NULL,NULL
120,5b31c0811d2f710001fb83db,9,2,384,1,12,12,1,unity-loader,0,NULL,"Level 1",NULL,NULL
121,5b31c0811d2f710001fb83db,9,2,1752,1,12,12,1,unity-loader,0,NULL,"Level 1",NULL,NULL
122,5b31c0811d2f710001fb83db,9,2,3617,2,12,12,1,unity-loader,1,NULL,,NULL,NULL
123,5b31c0811d2f710001fb83db,10,3,17,3,1,1,1,unity-loader,1,NULL,"Level 1",NULL,NULL
124,5b31c0811d2f710001fb83db,10,1,216,1,2,2,1,unity-loader,1,NULL,"Level 1",NULL,NULL
125,5b31c0811d2f710001fb83db,10,3,300,3,3,3,1,unity-loader,1,NULL,"Level 1",NULL,NULL
126,5b31c0811d2f710001fb83db,10,2,233,2,4,4,1,unity-loader,1,NULL,"Level 1",NULL,NULL
127,5b31c0811d2f710001fb83db,10,0,284,1,5,5,1,unity-loader,0,NULL,"Level 1",NULL,NULL
128,5b31c0811d2f710001fb83db,10,0,1533,0,5,5,1,unity-loader,1,NULL,"Level 1",NULL,NULL
129,5b31c0811d2f710001fb83db,10,1,350,2,6,6,1,unity-loader,0,NULL,"Level 1",NULL,NULL
130,5b31c0811d2f710001fb83db,10,1,1268,1,6,6,1,unity-loader,1,NULL,"Level 1",NULL,NULL
131,5b31c0811d2f710001fb83db,10,0,501,0,7,7,1,unity-loader,1,NULL,"Level 1",NULL,NULL
132,5b31c0811d2f710001fb83db,10,2,367,3,8,8,1,unity-loader,0,NULL,"Level 1",NULL,NULL
133,5b31c0811d2f710001fb83db,10,2,1383,2,8,8,1,unity-loader,1,NULL,"Level 1",NULL,NULL
134,5b31c0811d2f710001fb83db,10,1,317,1,9,9,1,unity-loader,1,NULL,"Level 1",NULL,NULL
135,5b31c0811d2f710001fb83db,10,0,598,0,10,10,1,unity-loader,1,NULL,"Level 1",NULL,NULL
136,5b31c0811d2f710001fb83db,10,3,68,3,11,11,1,unity-loader,1,NULL,"Level 1",NULL,NULL
137,5b31c0811d2f710001fb83db,10,2,16,2,12,12,1,unity-loader,1,NULL,,NULL,NULL
138,5b31c0811d2f710001fb83db,11,3,51,3,1,1,1,unity-loader,1,NULL,"Level 1",NULL,NULL
139,5b31c0811d2f710001fb83db,11,1,17,1,2,2,1,unity-loader,1,NULL,"Level 1",NULL,NULL
140,5b31c0811d2f710001fb83db,11,3,318,2,3,3,1,unity-loader,0,NULL,"Level 1",NULL,NULL
141,5b31c0811d2f710001fb83db,11,3,1366,3,3,3,1,unity-loader,1,NULL,"Level 1",NULL,NULL
142,5b31c0811d2f710001fb83db,11,2,417,2,4,4,1,unity-loader,1,NULL,"Level 1",NULL,NULL
143,5b31c0811d2f710001fb83db,11,0,501,1,5,5,1,unity-loader,0,NULL,"Level 1",NULL,NULL
144,5b31c0811d2f710001fb83db,11,0,1515,0,5,5,1,unity-loader,1,NULL,"Level 1",NULL,NULL
145,5b31c0811d2f710001fb83db,11,1,386,2,6,6,1,unity-loader,0,NULL,"Level 1",NULL,NULL
146,5b31c0811d2f710001fb83db,11,1,1334,1,6,6,1,unity-loader,1,NULL,"Level 1",NULL,NULL
147,5b31c0811d2f710001fb83db,11,0,415,0,7,7,1,unity-loader,1,NULL,"Level 1",NULL,NULL
148,5b31c0811d2f710001fb83db,11,2,464,2,8,8,1,unity-loader,1,NULL,"Level 1",NULL,NULL
149,5b31c0811d2f710001fb83db,11,1,516,1,9,9,1,unity-loader,1,NULL,"Level 1",NULL,NULL
150,5b31c0811d2f710001fb83db,11,0,500,0,10,10,1,unity-loader,1,NULL,"Level 1",NULL,NULL
151,5b31c0811d2f710001fb83db,11,3,399,3,11,11,1,unity-loader,1,NULL,"Level 1",NULL,NULL
152,5b31c0811d2f710001fb83db,11,2,435,1,12,12,1,unity-loader,0,NULL,"Level 1",NULL,NULL
153,5b31c0811d2f710001fb83db,11,2,1411,2,12,12,1,unity-loader,1,NULL,,NULL,NULL
154,5b31c0811d2f710001fb83db,12,3,284,3,1,1,1,unity-loader,1,NULL,"Level 1",NULL,NULL
155,5b31c0811d2f710001fb83db,12,1,133,1,2,2,1,unity-loader,1,NULL,"Level 1",NULL,NULL
156,5b31c0811d2f710001fb83db,12,3,218,0,3,3,1,unity-loader,0,NULL,"Level 1",NULL,NULL
157,5b31c0811d2f710001fb83db,12,3,1533,3,3,3,1,unity-loader,1,NULL,"Level 1",NULL,NULL
158,5b31c0811d2f710001fb83db,12,2,329,2,4,4,1,unity-loader,1,NULL,"Level 1",NULL,NULL
159,5b31c0811d2f710001fb83db,12,0,569,1,5,5,1,unity-loader,0,NULL,"Level 1",NULL,NULL
160,5b31c0811d2f710001fb83db,12,0,1534,0,5,5,1,unity-loader,1,NULL,"Level 1",NULL,NULL
161,5b31c0811d2f710001fb83db,12,1,302,2,6,6,1,unity-loader,0,NULL,"Level 1",NULL,NULL
162,5b31c0811d2f710001fb83db,12,1,1798,1,6,6,1,unity-loader,1,NULL,"Level 1",NULL,NULL
163,5b31c0811d2f710001fb83db,12,0,369,0,7,7,1,unity-loader,1,NULL,"Level 1",NULL,NULL
164,5b31c0811d2f710001fb83db,12,2,266,2,8,8,1,unity-loader,1,NULL,"Level 1",NULL,NULL
165,5b31c0811d2f710001fb83db,12,1,418,1,9,9,1,unity-loader,1,NULL,"Level 1",NULL,NULL
166,5b31c0811d2f710001fb83db,12,0,350,0,10,10,1,unity-loader,1,NULL,"Level 1",NULL,NULL
167,5b31c0811d2f710001fb83db,12,3,351,3,11,11,1,unity-loader,1,NULL,"Level 1",NULL,NULL
168,5b31c0811d2f710001fb83db,12,2,166,2,12,12,1,unity-loader,1,NULL,,NULL,NULL
169,5b31c0811d2f710001fb83db,13,3,119,3,1,1,1,unity-loader,1,NULL,"Level 1",NULL,NULL
170,5b31c0811d2f710001fb83db,13,1,432,1,2,2,1,unity-loader,1,NULL,"Level 1",NULL,NULL
171,5b31c0811d2f710001fb83db,13,3,351,3,3,3,1,unity-loader,1,NULL,"Level 1",NULL,NULL
172,5b31c0811d2f710001fb83db,13,2,314,2,4,4,1,unity-loader,1,NULL,"Level 1",NULL,NULL
173,5b31c0811d2f710001fb83db,13,0,368,0,5,5,1,unity-loader,1,NULL,"Level 1",NULL,NULL
174,5b31c0811d2f710001fb83db,13,1,316,2,6,6,1,unity-loader,0,NULL,"Level 1",NULL,NULL
175,5b31c0811d2f710001fb83db,13,1,1383,1,6,6,1,unity-loader,1,NULL,"Level 1",NULL,NULL
176,5b31c0811d2f710001fb83db,13,0,417,0,7,7,1,unity-loader,1,NULL,"Level 1",NULL,NULL
177,5b31c0811d2f710001fb83db,13,2,368,2,8,8,1,unity-loader,1,NULL,"Level 1",NULL,NULL
178,5b31c0811d2f710001fb83db,13,1,432,1,9,9,1,unity-loader,1,NULL,"Level 1",NULL,NULL
179,5b31c0811d2f710001fb83db,13,0,450,0,10,10,1,unity-loader,1,NULL,"Level 1",NULL,NULL
180,5b31c0811d2f710001fb83db,13,3,298,3,11,11,1,unity-loader,1,NULL,"Level 1",NULL,NULL
181,5b31c0811d2f710001fb83db,13,2,83,2,12,12,1,unity-loader,1,NULL,,NULL,NULL
182,5b31c0811d2f710001fb83db,14,3,117,3,1,1,1,unity-loader,1,NULL,"Level 1",NULL,NULL
183,5b31c0811d2f710001fb83db,14,1,183,1,2,2,1,unity-loader,1,NULL,"Level 1",NULL,NULL
184,5b31c0811d2f710001fb83db,14,3,300,3,3,3,1,unity-loader,1,NULL,"Level 1",NULL,NULL
185,5b31c0811d2f710001fb83db,14,2,317,2,4,4,1,unity-loader,1,NULL,"Level 1",NULL,NULL
186,5b31c0811d2f710001fb83db,14,0,133,0,5,5,1,unity-loader,1,NULL,"Level 1",NULL,NULL
187,5b31c0811d2f710001fb83db,14,1,350,1,6,6,1,unity-loader,1,NULL,"Level 1",NULL,NULL
188,5b31c0811d2f710001fb83db,14,0,349,0,7,7,1,unity-loader,1,NULL,"Level 1",NULL,NULL
189,5b31c0811d2f710001fb83db,14,2,250,2,8,8,1,unity-loader,1,NULL,"Level 1",NULL,NULL
190,5b31c0811d2f710001fb83db,14,1,432,1,9,9,1,unity-loader,1,NULL,"Level 1",NULL,NULL
191,5b31c0811d2f710001fb83db,14,0,466,0,10,10,1,unity-loader,1,NULL,"Level 1",NULL,NULL
192,5b31c0811d2f710001fb83db,14,3,283,3,11,11,1,unity-loader,1,NULL,"Level 1",NULL,NULL
193,5b31c0811d2f710001fb83db,14,2,215,2,12,12,1,unity-loader,1,NULL,,NULL,NULL
194,5b31c0811d2f710001fb83db,15,3,18,3,1,1,1,unity-loader,1,NULL,"Level 1",NULL,NULL
195,5b31c0811d2f710001fb83db,15,1,100,1,2,2,1,unity-loader,1,NULL,"Level 1",NULL,NULL
196,5b31c0811d2f710001fb83db,15,3,417,3,3,3,1,unity-loader,1,NULL,"Level 1",NULL,NULL
197,5b31c0811d2f710001fb83db,15,2,184,2,4,4,1,unity-loader,1,NULL,"Level 1",NULL,NULL
198,5b31c0811d2f710001fb83db,15,0,17,0,5,5,1,unity-loader,1,NULL,"Level 1",NULL,NULL
199,5b31c0811d2f710001fb83db,15,1,233,1,6,6,1,unity-loader,1,NULL,"Level 1",NULL,NULL
200,5b31c0811d2f710001fb83db,15,0,315,0,7,7,1,unity-loader,1,NULL,"Level 1",NULL,NULL
201,5b31c0811d2f710001fb83db,15,2,183,2,8,8,1,unity-loader,1,NULL,"Level 1",NULL,NULL
202,5b31c0811d2f710001fb83db,15,1,350,1,9,9,1,unity-loader,1,NULL,"Level 1",NULL,NULL
203,5b31c0811d2f710001fb83db,15,0,117,3,10,10,1,unity-loader,0,NULL,"Level 1",NULL,NULL
204,5b31c0811d2f710001fb83db,15,0,1184,1,10,10,1,unity-loader,0,NULL,"Level 1",NULL,NULL
205,5b31c0811d2f710001fb83db,15,0,2783,0,10,10,1,unity-loader,1,NULL,"Level 1",NULL,NULL
206,5b31c0811d2f710001fb83db,15,3,201,2,11,11,1,unity-loader,0,NULL,"Level 1",NULL,NULL
207,5b31c0811d2f710001fb83db,15,3,1400,3,11,11,1,unity-loader,1,NULL,"Level 1",NULL,NULL
208,5b31c0811d2f710001fb83db,15,2,267,2,12,12,1,unity-loader,1,NULL,,NULL,NULL
209,5b31c0811d2f710001fb83db,16,3,167,3,1,1,1,unity-loader,1,NULL,"Level 1",NULL,NULL
210,5b31c0811d2f710001fb83db,16,1,15,1,2,2,1,unity-loader,1,NULL,"Level 1",NULL,NULL
211,5b31c0811d2f710001fb83db,16,3,51,2,3,3,1,unity-loader,0,NULL,"Level 1",NULL,NULL
212,5b31c0811d2f710001fb83db,16,3,1565,3,3,3,1,unity-loader,1,NULL,"Level 1",NULL,NULL
213,5b31c0811d2f710001fb83db,16,2,316,2,4,4,1,unity-loader,1,NULL,"Level 1",NULL,NULL
214,5b31c0811d2f710001fb83db,16,0,434,0,5,5,1,unity-loader,1,NULL,"Level 1",NULL,NULL
215,5b31c0811d2f710001fb83db,16,1,501,2,6,6,1,unity-loader,0,NULL,"Level 1",NULL,NULL
216,5b31c0811d2f710001fb83db,16,1,1416,1,6,6,1,unity-loader,1,NULL,"Level 1",NULL,NULL
217,5b31c0811d2f710001fb83db,16,0,384,0,7,7,1,unity-loader,1,NULL,"Level 1",NULL,NULL
218,5b31c0811d2f710001fb83db,16,2,332,2,8,8,1,unity-loader,1,NULL,"Level 1",NULL,NULL
219,5b31c0811d2f710001fb83db,16,1,468,1,9,9,1,unity-loader,1,NULL,"Level 1",NULL,NULL
220,5b31c0811d2f710001fb83db,16,0,350,0,10,10,1,unity-loader,1,NULL,"Level 1",NULL,NULL
221,5b31c0811d2f710001fb83db,16,3,416,3,11,11,1,unity-loader,1,NULL,"Level 1",NULL,NULL
222,5b31c0811d2f710001fb83db,16,2,333,2,12,12,1,unity-loader,1,NULL,,NULL,NULL
223,5b31c0811d2f710001fb83db,17,3,133,3,1,1,1,unity-loader,1,NULL,"Level 1",NULL,NULL
224,5b31c0811d2f710001fb83db,17,1,200,1,2,2,1,unity-loader,1,NULL,"Level 1",NULL,NULL
225,5b31c0811d2f710001fb83db,17,3,366,3,3,3,1,unity-loader,1,NULL,"Level 1",NULL,NULL
226,5b31c0811d2f710001fb83db,17,2,118,2,4,4,1,unity-loader,1,NULL,"Level 1",NULL,NULL
227,5b31c0811d2f710001fb83db,17,0,118,1,5,5,1,unity-loader,0,NULL,"Level 1",NULL,NULL
228,5b31c0811d2f710001fb83db,17,0,1200,0,5,5,1,unity-loader,1,NULL,"Level 1",NULL,NULL
229,5b31c0811d2f710001fb83db,17,1,316,1,6,6,1,unity-loader,1,NULL,"Level 1",NULL,NULL
230,5b31c0811d2f710001fb83db,17,0,449,0,7,7,1,unity-loader,1,NULL,"Level 1",NULL,NULL
231,5b31c0811d2f710001fb83db,17,2,351,3,8,8,1,unity-loader,0,NULL,"Level 1",NULL,NULL
232,5b31c0811d2f710001fb83db,17,2,1300,2,8,8,1,unity-loader,1,NULL,"Level 1",NULL,NULL
233,5b31c0811d2f710001fb83db,17,1,583,1,9,9,1,unity-loader,1,NULL,"Level 1",NULL,NULL
234,5b31c0811d2f710001fb83db,17,0,483,0,10,10,1,unity-loader,1,NULL,"Level 1",NULL,NULL
235,5b31c0811d2f710001fb83db,17,3,416,3,11,11,1,unity-loader,1,NULL,"Level 1",NULL,NULL
236,5b31c0811d2f710001fb83db,17,2,316,2,12,12,1,unity-loader,1,NULL,,NULL,NULL
237,5b31c0811d2f710001fb83db,18,3,83,3,1,1,1,unity-loader,1,NULL,"Level 1",NULL,NULL
238,5b31c0811d2f710001fb83db,18,1,234,1,2,2,1,unity-loader,1,NULL,"Level 1",NULL,NULL
239,5b31c0811d2f710001fb83db,18,3,318,3,3,3,1,unity-loader,1,NULL,"Level 1",NULL,NULL
240,5b31c0811d2f710001fb83db,18,2,133,2,4,4,1,unity-loader,1,NULL,"Level 1",NULL,NULL
241,5b31c0811d2f710001fb83db,18,0,283,0,5,5,1,unity-loader,1,NULL,"Level 1",NULL,NULL
242,5b31c0811d2f710001fb83db,18,1,302,1,6,6,1,unity-loader,1,NULL,"Level 1",NULL,NULL
243,5b31c0811d2f710001fb83db,18,0,316,0,7,7,1,unity-loader,1,NULL,"Level 1",NULL,NULL
244,5b31c0811d2f710001fb83db,18,2,285,2,8,8,1,unity-loader,1,NULL,"Level 1",NULL,NULL
245,5b31c0811d2f710001fb83db,18,1,423,1,9,9,1,unity-loader,1,NULL,"Level 1",NULL,NULL
246,5b31c0811d2f710001fb83db,18,0,251,0,10,10,1,unity-loader,1,NULL,"Level 1",NULL,NULL
247,5b31c0811d2f710001fb83db,18,3,301,2,11,11,1,unity-loader,0,NULL,"Level 1",NULL,NULL
248,5b31c0811d2f710001fb83db,18,3,1283,3,11,11,1,unity-loader,1,NULL,"Level 1",NULL,NULL
249,5b31c0811d2f710001fb83db,18,2,50,2,12,12,1,unity-loader,1,NULL,,NULL,NULL
250,5b31c0811d2f710001fb83db,19,3,49,3,1,1,1,unity-loader,1,NULL,"Level 1",NULL,NULL
251,5b31c0811d2f710001fb83db,19,1,133,1,2,2,1,unity-loader,1,NULL,"Level 1",NULL,NULL
252,5b31c0811d2f710001fb83db,19,3,151,3,3,3,1,unity-loader,1,NULL,"Level 1",NULL,NULL
253,5b31c0811d2f710001fb83db,19,2,49,2,4,4,1,unity-loader,1,NULL,"Level 1",NULL,NULL
254,5b31c0811d2f710001fb83db,19,0,200,0,5,5,1,unity-loader,1,NULL,"Level 1",NULL,NULL
255,5b31c0811d2f710001fb83db,19,1,250,1,6,6,1,unity-loader,1,NULL,"Level 1",NULL,NULL
256,5b31c0811d2f710001fb83db,19,0,400,0,7,7,1,unity-loader,1,NULL,"Level 1",NULL,NULL
257,5b31c0811d2f710001fb83db,19,2,233,2,8,8,1,unity-loader,1,NULL,"Level 1",NULL,NULL
258,5b31c0811d2f710001fb83db,19,1,516,1,9,9,1,unity-loader,1,NULL,"Level 1",NULL,NULL
259,5b31c0811d2f710001fb83db,19,0,400,0,10,10,1,unity-loader,1,NULL,"Level 1",NULL,NULL
260,5b31c0811d2f710001fb83db,19,3,251,2,11,11,1,unity-loader,0,NULL,"Level 1",NULL,NULL
261,5b31c0811d2f710001fb83db,19,3,1251,3,11,11,1,unity-loader,1,NULL,"Level 1",NULL,NULL
262,5b31c0811d2f710001fb83db,19,2,201,2,12,12,1,unity-loader,1,NULL,,NULL,NULL
263,5b31c0811d2f710001fb83db,20,3,167,3,1,1,1,unity-loader,1,NULL,"Level 1",NULL,NULL
264,5b31c0811d2f710001fb83db,20,1,17,1,2,2,1,unity-loader,1,NULL,"Level 1",NULL,NULL
265,5b31c0811d2f710001fb83db,20,3,151,0,3,3,1,unity-loader,0,NULL,"Level 1",NULL,NULL
266,5b31c0811d2f710001fb83db,20,3,1250,3,3,3,1,unity-loader,1,NULL,"Level 1",NULL,NULL
267,5b31c0811d2f710001fb83db,20,2,334,2,4,4,1,unity-loader,1,NULL,"Level 1",NULL,NULL
268,5b31c0811d2f710001fb83db,20,0,417,0,5,5,1,unity-loader,1,NULL,"Level 1",NULL,NULL
269,5b31c0811d2f710001fb83db,20,1,369,2,6,6,1,unity-loader,0,NULL,"Level 1",NULL,NULL
270,5b31c0811d2f710001fb83db,20,1,1367,1,6,6,1,unity-loader,1,NULL,"Level 1",NULL,NULL
271,5b31c0811d2f710001fb83db,20,0,266,0,7,7,1,unity-loader,1,NULL,"Level 1",NULL,NULL
272,5b31c0811d2f710001fb83db,20,2,149,2,8,8,1,unity-loader,1,NULL,"Level 1",NULL,NULL
273,5b31c0811d2f710001fb83db,20,1,400,0,9,9,1,unity-loader,0,NULL,"Level 1",NULL,NULL
274,5b31c0811d2f710001fb83db,20,1,1600,1,9,9,1,unity-loader,1,NULL,"Level 1",NULL,NULL
275,5b31c0811d2f710001fb83db,20,0,399,0,10,10,1,unity-loader,1,NULL,"Level 1",NULL,NULL
276,5b31c0811d2f710001fb83db,20,3,399,3,11,11,1,unity-loader,1,NULL,"Level 1",NULL,NULL
277,5b31c0811d2f710001fb83db,20,2,333,2,12,12,1,unity-loader,1,NULL,,NULL,NULL
278,5b31c0811d2f710001fb83db,21,3,249,3,1,1,1,unity-loader,1,NULL,"Level 1",NULL,NULL
279,5b31c0811d2f710001fb83db,21,1,284,1,2,2,1,unity-loader,1,NULL,"Level 1",NULL,NULL
280,5b31c0811d2f710001fb83db,21,3,365,3,3,3,1,unity-loader,1,NULL,"Level 1",NULL,NULL
281,5b31c0811d2f710001fb83db,21,2,49,2,4,4,1,unity-loader,1,NULL,"Level 1",NULL,NULL
282,5b31c0811d2f710001fb83db,21,0,100,0,5,5,1,unity-loader,1,NULL,"Level 1",NULL,NULL
283,5b31c0811d2f710001fb83db,21,1,317,1,6,6,1,unity-loader,1,NULL,"Level 1",NULL,NULL
284,5b31c0811d2f710001fb83db,21,0,302,0,7,7,1,unity-loader,1,NULL,"Level 1",NULL,NULL
285,5b31c0811d2f710001fb83db,21,2,184,2,8,8,1,unity-loader,1,NULL,"Level 1",NULL,NULL
286,5b31c0811d2f710001fb83db,21,1,367,1,9,9,1,unity-loader,1,NULL,"Level 1",NULL,NULL
287,5b31c0811d2f710001fb83db,21,0,333,0,10,10,1,unity-loader,1,NULL,"Level 1",NULL,NULL
288,5b31c0811d2f710001fb83db,21,3,202,2,11,11,1,unity-loader,0,NULL,"Level 1",NULL,NULL
289,5b31c0811d2f710001fb83db,21,3,1433,3,11,11,1,unity-loader,1,NULL,"Level 1",NULL,NULL
290,5b31c0811d2f710001fb83db,21,2,200,2,12,12,1,unity-loader,1,NULL,,NULL,NULL
291,5b31c0811d2f710001fb83db,22,3,116,3,1,1,1,unity-loader,1,NULL,"Level 1",NULL,NULL
292,5b31c0811d2f710001fb83db,22,1,49,1,2,2,1,unity-loader,1,NULL,"Level 1",NULL,NULL
293,5b31c0811d2f710001fb83db,22,3,33,3,3,3,1,unity-loader,1,NULL,"Level 1",NULL,NULL
294,5b31c0811d2f710001fb83db,22,2,100,2,4,4,1,unity-loader,1,NULL,"Level 1",NULL,NULL
295,5b31c0811d2f710001fb83db,22,0,150,0,5,5,1,unity-loader,1,NULL,"Level 1",NULL,NULL
296,5b31c0811d2f710001fb83db,22,1,282,1,6,6,1,unity-loader,1,NULL,"Level 1",NULL,NULL
297,5b31c0811d2f710001fb83db,22,0,251,0,7,7,1,unity-loader,1,NULL,"Level 1",NULL,NULL
298,5b31c0811d2f710001fb83db,22,2,134,2,8,8,1,unity-loader,1,NULL,"Level 1",NULL,NULL
299,5b31c0811d2f710001fb83db,22,1,583,1,9,9,1,unity-loader,1,NULL,"Level 1",NULL,NULL
300,5b31c0811d2f710001fb83db,22,0,383,0,10,10,1,unity-loader,1,NULL,"Level 1",NULL,NULL
301,5b31c0811d2f710001fb83db,22,3,232,3,11,11,1,unity-loader,1,NULL,"Level 1",NULL,NULL
302,5b31c0811d2f710001fb83db,22,2,49,2,12,12,1,unity-loader,1,NULL,,NULL,NULL
303,5b31c0811d2f710001fb83db,23,3,301,3,1,1,1,unity-loader,1,NULL,"Level 1",NULL,NULL
304,5b31c0811d2f710001fb83db,23,1,235,1,2,2,1,unity-loader,1,NULL,"Level 1",NULL,NULL
305,5b31c0811d2f710001fb83db,23,3,133,3,3,3,1,unity-loader,1,NULL,"Level 1",NULL,NULL
306,5b31c0811d2f710001fb83db,23,2,132,2,4,4,1,unity-loader,1,NULL,"Level 1",NULL,NULL
307,5b31c0811d2f710001fb83db,23,0,417,0,5,5,1,unity-loader,1,NULL,"Level 1",NULL,NULL
308,5b31c0811d2f710001fb83db,23,1,183,1,6,6,1,unity-loader,1,NULL,"Level 1",NULL,NULL
309,5b31c0811d2f710001fb83db,23,0,330,0,7,7,1,unity-loader,1,NULL,"Level 1",NULL,NULL
310,5b31c0811d2f710001fb83db,23,2,36,2,8,8,1,unity-loader,1,NULL,"Level 1",NULL,NULL
311,5b31c0811d2f710001fb83db,23,1,86,0,9,9,1,unity-loader,0,NULL,"Level 1",NULL,NULL
312,5b31c0811d2f710001fb83db,23,1,1316,1,9,9,1,unity-loader,1,NULL,"Level 1",NULL,NULL
313,5b31c0811d2f710001fb83db,23,0,333,0,10,10,1,unity-loader,1,NULL,"Level 1",NULL,NULL
314,5b31c0811d2f710001fb83db,23,3,82,3,11,11,1,unity-loader,1,NULL,"Level 1",NULL,NULL
315,5b31c0811d2f710001fb83db,23,2,118,0,12,12,1,unity-loader,0,NULL,"Level 1",NULL,NULL
316,5b31c0811d2f710001fb83db,23,2,1214,2,12,12,1,unity-loader,1,NULL,,NULL,NULL
317,5b31c0811d2f710001fb83db,24,3,133,3,1,1,1,unity-loader,1,NULL,"Level 1",NULL,NULL
318,5b31c0811d2f710001fb83db,24,1,66,1,2,2,1,unity-loader,1,NULL,"Level 1",NULL,NULL
319,5b31c0811d2f710001fb83db,24,3,384,3,3,3,1,unity-loader,1,NULL,"Level 1",NULL,NULL
320,5b31c0811d2f710001fb83db,24,2,116,2,4,4,1,unity-loader,1,NULL,"Level 1",NULL,NULL
321,5b31c0811d2f710001fb83db,24,0,16,0,5,5,1,unity-loader,1,NULL,"Level 1",NULL,NULL
322,5b31c0811d2f710001fb83db,24,1,14,1,6,6,1,unity-loader,1,NULL,"Level 1",NULL,NULL
323,5b31c0811d2f710001fb83db,24,0,184,0,7,7,1,unity-loader,1,NULL,"Level 1",NULL,NULL
324,5b31c0811d2f710001fb83db,24,2,383,2,8,8,1,unity-loader,1,NULL,"Level 1",NULL,NULL
325,5b31c0811d2f710001fb83db,24,1,100,0,9,9,1,unity-loader,0,NULL,"Level 1",NULL,NULL
326,5b31c0811d2f710001fb83db,24,1,1348,1,9,9,1,unity-loader,1,NULL,"Level 1",NULL,NULL
327,5b31c0811d2f710001fb83db,24,0,350,0,10,10,1,unity-loader,1,NULL,"Level 1",NULL,NULL
328,5b31c0811d2f710001fb83db,24,3,119,2,11,11,1,unity-loader,0,NULL,"Level 1",NULL,NULL
329,5b31c0811d2f710001fb83db,24,3,1368,3,11,11,1,unity-loader,1,NULL,"Level 1",NULL,NULL
330,5b31c0811d2f710001fb83db,24,2,168,2,12,12,1,unity-loader,1,NULL,,NULL,NULL
331,5b31c0811d2f710001fb83db,25,3,49,3,1,1,1,unity-loader,1,NULL,"Level 1",NULL,NULL
332,5b31c0811d2f710001fb83db,25,1,16,1,2,2,1,unity-loader,1,NULL,"Level 1",NULL,NULL
333,5b31c0811d2f710001fb83db,25,3,466,3,3,3,1,unity-loader,1,NULL,"Level 1",NULL,NULL
334,5b31c0811d2f710001fb83db,25,2,34,2,4,4,1,unity-loader,1,NULL,"Level 1",NULL,NULL
335,5b31c0811d2f710001fb83db,25,0,116,0,5,5,1,unity-loader,1,NULL,"Level 1",NULL,NULL
336,5b31c0811d2f710001fb83db,25,1,32,1,6,6,1,unity-loader,1,NULL,"Level 1",NULL,NULL
337,5b31c0811d2f710001fb83db,25,0,35,0,7,7,1,unity-loader,1,NULL,"Level 1",NULL,NULL
338,5b31c0811d2f710001fb83db,25,2,51,2,8,8,1,unity-loader,1,NULL,"Level 1",NULL,NULL
339,5b31c0811d2f710001fb83db,25,1,383,1,9,9,1,unity-loader,1,NULL,"Level 1",NULL,NULL
340,5b31c0811d2f710001fb83db,25,0,300,0,10,10,1,unity-loader,1,NULL,"Level 1",NULL,NULL
341,5b31c0811d2f710001fb83db,25,3,50,3,11,11,1,unity-loader,1,NULL,"Level 1",NULL,NULL
342,5b31c0811d2f710001fb83db,25,2,249,2,12,12,1,unity-loader,1,NULL,,NULL,NULL
343,5b31c0811d2f710001fb83db,NULL,NULL,NULL,NULL,NULL,NULL,4,call-function,NULL,NULL,NULL,"Mozilla/5.0 (Windows NT 6.1) AppleWebKit/537.36 (KHTML, like Gecko) Chrome/68.0.3440.106 Safari/537.36",NULL
344,5b31c0811d2f710001fb83db,NULL,NULL,1829,NULL,NULL,NULL,5,html-button-response,NULL,NULL,NULL,"Mozilla/5.0 (Windows NT 6.1) AppleWebKit/537.36 (KHTML, like Gecko) Chrome/68.0.3440.106 Safari/537.36",NULL
345,5b31c0811d2f710001fb83db,NULL,NULL,16625,NULL,NULL,NULL,6,survey-text,NULL,"{"Q0":"39","Q1":"Male","Q2":"2"}",NULL,"Mozilla/5.0 (Windows NT 6.1) AppleWebKit/537.36 (KHTML, like Gecko) Chrome/68.0.3440.106 Safari/537.36",1
346,5b31c0811d2f710001fb83db,NULL,NULL,6741,NULL,NULL,NULL,7,survey-multi-select,NULL,"{"Q0":["Desktop/Laptop Web Browser"]}",NULL,"Mozilla/5.0 (Windows NT 6.1) AppleWebKit/537.36 (KHTML, like Gecko) Chrome/68.0.3440.106 Safari/537.36",2
347,5b31c0811d2f710001fb83db,NULL,NULL,16458,NULL,NULL,NULL,8,survey-multi-choice,NULL,"{"Q0":"Would play again","Q1":"Would motivate me","Q2":"Would motivate me","Q3":"Would motivate me"}",NULL,"Mozilla/5.0 (Windows NT 6.1) AppleWebKit/537.36 (KHTML, like Gecko) Chrome/68.0.3440.106 Safari/537.36",3
348,5b31c0811d2f710001fb83db,NULL,NULL,7727,NULL,NULL,NULL,9,survey-text,NULL,"{"Q0":""}",NULL,"Mozilla/5.0 (Windows NT 6.1) AppleWebKit/537.36 (KHTML, like Gecko) Chrome/68.0.3440.106 Safari/537.36",4
349,5b96b5df57dc8100012bef63,NULL,NULL,39493,NULL,NULL,NULL,0,html-button-response,NULL,NULL,NULL,"Mozilla/5.0 (Macintosh; Intel Mac OS X 10_13_6) AppleWebKit/537.36 (KHTML, like Gecko) Chrome/68.0.3440.106 Safari/537.36",NULL
350,5b96b5df57dc8100012bef63,1,3,732,3,1,1,1,unity-loader,1,NULL,"Level 1",NULL,NULL
351,5b96b5df57dc8100012bef63,1,1,667,1,2,2,1,unity-loader,1,NULL,"Level 1",NULL,NULL
352,5b96b5df57dc8100012bef63,1,3,484,3,3,3,1,unity-loader,1,NULL,"Level 1",NULL,NULL
353,5b96b5df57dc8100012bef63,1,2,550,2,4,4,1,unity-loader,1,NULL,"Level 1",NULL,NULL
354,5b96b5df57dc8100012bef63,1,0,783,0,5,5,1,unity-loader,1,NULL,"Level 1",NULL,NULL
355,5b96b5df57dc8100012bef63,1,1,750,1,6,6,1,unity-loader,1,NULL,"Level 1",NULL,NULL
356,5b96b5df57dc8100012bef63,1,0,449,0,7,7,1,unity-loader,1,NULL,"Level 1",NULL,NULL
357,5b96b5df57dc8100012bef63,1,2,500,3,8,8,1,unity-loader,0,NULL,"Level 1",NULL,NULL
358,5b96b5df57dc8100012bef63,1,2,5399,-1,8,8,1,unity-loader,0,NULL,"Level 1",NULL,NULL
359,5b96b5df57dc8100012bef63,1,2,6466,2,8,8,1,unity-loader,1,NULL,"Level 1",NULL,NULL
360,5b96b5df57dc8100012bef63,1,1,533,1,9,9,1,unity-loader,1,NULL,"Level 1",NULL,NULL
361,5b96b5df57dc8100012bef63,1,0,501,0,10,10,1,unity-loader,1,NULL,"Level 1",NULL,NULL
362,5b96b5df57dc8100012bef63,1,3,433,3,11,11,1,unity-loader,1,NULL,"Level 1",NULL,NULL
363,5b96b5df57dc8100012bef63,1,2,401,2,12,12,1,unity-loader,1,NULL,,NULL,NULL
364,5b96b5df57dc8100012bef63,2,3,450,3,1,1,1,unity-loader,1,NULL,"Level 1",NULL,NULL
365,5b96b5df57dc8100012bef63,2,1,434,1,2,2,1,unity-loader,1,NULL,"Level 1",NULL,NULL
366,5b96b5df57dc8100012bef63,2,3,383,3,3,3,1,unity-loader,1,NULL,"Level 1",NULL,NULL
367,5b96b5df57dc8100012bef63,2,2,450,2,4,4,1,unity-loader,1,NULL,"Level 1",NULL,NULL
368,5b96b5df57dc8100012bef63,2,0,399,0,5,5,1,unity-loader,1,NULL,"Level 1",NULL,NULL
369,5b96b5df57dc8100012bef63,2,1,450,2,6,6,1,unity-loader,0,NULL,"Level 1",NULL,NULL
370,5b96b5df57dc8100012bef63,2,1,2350,1,6,6,1,unity-loader,1,NULL,"Level 1",NULL,NULL
371,5b96b5df57dc8100012bef63,2,0,399,0,7,7,1,unity-loader,1,NULL,"Level 1",NULL,NULL
372,5b96b5df57dc8100012bef63,2,2,584,2,8,8,1,unity-loader,1,NULL,"Level 1",NULL,NULL
373,5b96b5df57dc8100012bef63,2,1,450,1,9,9,1,unity-loader,1,NULL,"Level 1",NULL,NULL
374,5b96b5df57dc8100012bef63,2,0,466,0,10,10,1,unity-loader,1,NULL,"Level 1",NULL,NULL
375,5b96b5df57dc8100012bef63,2,3,400,3,11,11,1,unity-loader,1,NULL,"Level 1",NULL,NULL
376,5b96b5df57dc8100012bef63,2,2,534,2,12,12,1,unity-loader,1,NULL,,NULL,NULL
377,5b96b5df57dc8100012bef63,3,3,366,3,1,1,1,unity-loader,1,NULL,"Level 1",NULL,NULL
378,5b96b5df57dc8100012bef63,3,1,249,0,2,2,1,unity-loader,0,NULL,"Level 1",NULL,NULL
379,5b96b5df57dc8100012bef63,3,1,1316,1,2,2,1,unity-loader,1,NULL,"Level 1",NULL,NULL
380,5b96b5df57dc8100012bef63,3,3,384,3,3,3,1,unity-loader,1,NULL,"Level 1",NULL,NULL
381,5b96b5df57dc8100012bef63,3,2,483,2,4,4,1,unity-loader,1,NULL,"Level 1",NULL,NULL
382,5b96b5df57dc8100012bef63,3,0,350,0,5,5,1,unity-loader,1,NULL,"Level 1",NULL,NULL
383,5b96b5df57dc8100012bef63,3,1,617,1,6,6,1,unity-loader,1,NULL,"Level 1",NULL,NULL
384,5b96b5df57dc8100012bef63,3,0,434,0,7,7,1,unity-loader,1,NULL,"Level 1",NULL,NULL
385,5b96b5df57dc8100012bef63,3,2,617,2,8,8,1,unity-loader,1,NULL,"Level 1",NULL,NULL
386,5b96b5df57dc8100012bef63,3,1,533,1,9,9,1,unity-loader,1,NULL,"Level 1",NULL,NULL
387,5b96b5df57dc8100012bef63,3,0,433,0,10,10,1,unity-loader,1,NULL,"Level 1",NULL,NULL
388,5b96b5df57dc8100012bef63,3,3,384,3,11,11,1,unity-loader,1,NULL,"Level 1",NULL,NULL
389,5b96b5df57dc8100012bef63,3,2,350,1,12,12,1,unity-loader,0,NULL,"Level 1",NULL,NULL
390,5b96b5df57dc8100012bef63,3,2,1534,2,12,12,1,unity-loader,1,NULL,,NULL,NULL
391,5b96b5df57dc8100012bef63,4,3,316,3,1,1,1,unity-loader,1,NULL,"Level 1",NULL,NULL
392,5b96b5df57dc8100012bef63,4,1,533,1,2,2,1,unity-loader,1,NULL,"Level 1",NULL,NULL
393,5b96b5df57dc8100012bef63,4,3,399,3,3,3,1,unity-loader,1,NULL,"Level 1",NULL,NULL
394,5b96b5df57dc8100012bef63,4,2,500,2,4,4,1,unity-loader,1,NULL,"Level 1",NULL,NULL
395,5b96b5df57dc8100012bef63,4,0,400,0,5,5,1,unity-loader,1,NULL,"Level 1",NULL,NULL
396,5b96b5df57dc8100012bef63,4,1,516,1,6,6,1,unity-loader,1,NULL,"Level 1",NULL,NULL
397,5b96b5df57dc8100012bef63,4,0,367,0,7,7,1,unity-loader,1,NULL,"Level 1",NULL,NULL
398,5b96b5df57dc8100012bef63,4,2,466,2,8,8,1,unity-loader,1,NULL,"Level 1",NULL,NULL
399,5b96b5df57dc8100012bef63,4,1,383,1,9,9,1,unity-loader,1,NULL,"Level 1",NULL,NULL
400,5b96b5df57dc8100012bef63,4,0,333,0,10,10,1,unity-loader,1,NULL,"Level 1",NULL,NULL
401,5b96b5df57dc8100012bef63,4,3,366,3,11,11,1,unity-loader,1,NULL,"Level 1",NULL,NULL
402,5b96b5df57dc8100012bef63,4,2,349,2,12,12,1,unity-loader,1,NULL,,NULL,NULL
403,5b96b5df57dc8100012bef63,5,3,367,3,1,1,1,unity-loader,1,NULL,"Level 1",NULL,NULL
404,5b96b5df57dc8100012bef63,5,1,451,1,2,2,1,unity-loader,1,NULL,"Level 1",NULL,NULL
405,5b96b5df57dc8100012bef63,5,3,282,3,3,3,1,unity-loader,1,NULL,"Level 1",NULL,NULL
406,5b96b5df57dc8100012bef63,5,2,466,2,4,4,1,unity-loader,1,NULL,"Level 1",NULL,NULL
407,5b96b5df57dc8100012bef63,5,0,300,0,5,5,1,unity-loader,1,NULL,"Level 1",NULL,NULL
408,5b96b5df57dc8100012bef63,5,1,350,2,6,6,1,unity-loader,0,NULL,"Level 1",NULL,NULL
409,5b96b5df57dc8100012bef63,5,1,1534,1,6,6,1,unity-loader,1,NULL,"Level 1",NULL,NULL
410,5b96b5df57dc8100012bef63,5,0,301,0,7,7,1,unity-loader,1,NULL,"Level 1",NULL,NULL
411,5b96b5df57dc8100012bef63,5,2,451,2,8,8,1,unity-loader,1,NULL,"Level 1",NULL,NULL
412,5b96b5df57dc8100012bef63,5,1,350,1,9,9,1,unity-loader,1,NULL,"Level 1",NULL,NULL
413,5b96b5df57dc8100012bef63,5,0,416,0,10,10,1,unity-loader,1,NULL,"Level 1",NULL,NULL
414,5b96b5df57dc8100012bef63,5,3,283,3,11,11,1,unity-loader,1,NULL,"Level 1",NULL,NULL
415,5b96b5df57dc8100012bef63,5,2,333,2,12,12,1,unity-loader,1,NULL,,NULL,NULL
416,5b96b5df57dc8100012bef63,6,3,300,3,1,1,1,unity-loader,1,NULL,"Level 1",NULL,NULL
417,5b96b5df57dc8100012bef63,6,1,400,1,2,2,1,unity-loader,1,NULL,"Level 1",NULL,NULL
418,5b96b5df57dc8100012bef63,6,3,332,3,3,3,1,unity-loader,1,NULL,"Level 1",NULL,NULL
419,5b96b5df57dc8100012bef63,6,2,467,2,4,4,1,unity-loader,1,NULL,"Level 1",NULL,NULL
420,5b96b5df57dc8100012bef63,6,0,350,0,5,5,1,unity-loader,1,NULL,"Level 1",NULL,NULL
421,5b96b5df57dc8100012bef63,6,1,383,1,6,6,1,unity-loader,1,NULL,"Level 1",NULL,NULL
422,5b96b5df57dc8100012bef63,6,0,451,0,7,7,1,unity-loader,1,NULL,"Level 1",NULL,NULL
423,5b96b5df57dc8100012bef63,6,2,417,2,8,8,1,unity-loader,1,NULL,"Level 1",NULL,NULL
424,5b96b5df57dc8100012bef63,6,1,383,1,9,9,1,unity-loader,1,NULL,"Level 1",NULL,NULL
425,5b96b5df57dc8100012bef63,6,0,417,0,10,10,1,unity-loader,1,NULL,"Level 1",NULL,NULL
426,5b96b5df57dc8100012bef63,6,3,349,3,11,11,1,unity-loader,1,NULL,"Level 1",NULL,NULL
427,5b96b5df57dc8100012bef63,6,2,433,2,12,12,1,unity-loader,1,NULL,,NULL,NULL
428,5b96b5df57dc8100012bef63,7,3,301,3,1,1,1,unity-loader,1,NULL,"Level 1",NULL,NULL
429,5b96b5df57dc8100012bef63,7,1,383,1,2,2,1,unity-loader,1,NULL,"Level 1",NULL,NULL
430,5b96b5df57dc8100012bef63,7,3,334,3,3,3,1,unity-loader,1,NULL,"Level 1",NULL,NULL
431,5b96b5df57dc8100012bef63,7,2,484,2,4,4,1,unity-loader,1,NULL,"Level 1",NULL,NULL
432,5b96b5df57dc8100012bef63,7,0,366,0,5,5,1,unity-loader,1,NULL,"Level 1",NULL,NULL
433,5b96b5df57dc8100012bef63,7,1,401,1,6,6,1,unity-loader,1,NULL,"Level 1",NULL,NULL
434,5b96b5df57dc8100012bef63,7,0,367,0,7,7,1,unity-loader,1,NULL,"Level 1",NULL,NULL
435,5b96b5df57dc8100012bef63,7,2,433,2,8,8,1,unity-loader,1,NULL,"Level 1",NULL,NULL
436,5b96b5df57dc8100012bef63,7,1,350,1,9,9,1,unity-loader,1,NULL,"Level 1",NULL,NULL
437,5b96b5df57dc8100012bef63,7,0,416,0,10,10,1,unity-loader,1,NULL,"Level 1",NULL,NULL
438,5b96b5df57dc8100012bef63,7,3,400,3,11,11,1,unity-loader,1,NULL,"Level 1",NULL,NULL
439,5b96b5df57dc8100012bef63,7,2,367,2,12,12,1,unity-loader,1,NULL,,NULL,NULL
440,5b96b5df57dc8100012bef63,8,3,451,3,1,1,1,unity-loader,1,NULL,"Level 1",NULL,NULL
441,5b96b5df57dc8100012bef63,8,1,266,1,2,2,1,unity-loader,1,NULL,"Level 1",NULL,NULL
442,5b96b5df57dc8100012bef63,8,3,333,3,3,3,1,unity-loader,1,NULL,"Level 1",NULL,NULL
443,5b96b5df57dc8100012bef63,8,2,249,2,4,4,1,unity-loader,1,NULL,"Level 1",NULL,NULL
444,5b96b5df57dc8100012bef63,8,0,285,1,5,5,1,unity-loader,0,NULL,"Level 1",NULL,NULL
445,5b96b5df57dc8100012bef63,8,0,1600,0,5,5,1,unity-loader,1,NULL,"Level 1",NULL,NULL
446,5b96b5df57dc8100012bef63,8,1,368,1,6,6,1,unity-loader,1,NULL,"Level 1",NULL,NULL
447,5b96b5df57dc8100012bef63,8,0,399,0,7,7,1,unity-loader,1,NULL,"Level 1",NULL,NULL
448,5b96b5df57dc8100012bef63,8,2,267,3,8,8,1,unity-loader,0,NULL,"Level 1",NULL,NULL
449,5b96b5df57dc8100012bef63,8,2,1867,2,8,8,1,unity-loader,1,NULL,"Level 1",NULL,NULL
450,5b96b5df57dc8100012bef63,8,1,467,1,9,9,1,unity-loader,1,NULL,"Level 1",NULL,NULL
451,5b96b5df57dc8100012bef63,8,0,400,0,10,10,1,unity-loader,1,NULL,"Level 1",NULL,NULL
452,5b96b5df57dc8100012bef63,8,3,382,3,11,11,1,unity-loader,1,NULL,"Level 1",NULL,NULL
453,5b96b5df57dc8100012bef63,8,2,400,2,12,12,1,unity-loader,1,NULL,,NULL,NULL
454,5b96b5df57dc8100012bef63,9,3,149,3,1,1,1,unity-loader,1,NULL,"Level 1",NULL,NULL
455,5b96b5df57dc8100012bef63,9,1,300,1,2,2,1,unity-loader,1,NULL,"Level 1",NULL,NULL
456,5b96b5df57dc8100012bef63,9,3,367,3,3,3,1,unity-loader,1,NULL,"Level 1",NULL,NULL
457,5b96b5df57dc8100012bef63,9,2,283,2,4,4,1,unity-loader,1,NULL,"Level 1",NULL,NULL
458,5b96b5df57dc8100012bef63,9,0,333,0,5,5,1,unity-loader,1,NULL,"Level 1",NULL,NULL
459,5b96b5df57dc8100012bef63,9,1,500,1,6,6,1,unity-loader,1,NULL,"Level 1",NULL,NULL
460,5b96b5df57dc8100012bef63,9,0,368,0,7,7,1,unity-loader,1,NULL,"Level 1",NULL,NULL
461,5b96b5df57dc8100012bef63,9,2,416,2,8,8,1,unity-loader,1,NULL,"Level 1",NULL,NULL
462,5b96b5df57dc8100012bef63,9,1,333,1,9,9,1,unity-loader,1,NULL,"Level 1",NULL,NULL
463,5b96b5df57dc8100012bef63,9,0,267,3,10,10,1,unity-loader,0,NULL,"Level 1",NULL,NULL
464,5b96b5df57dc8100012bef63,9,0,1366,0,10,10,1,unity-loader,1,NULL,"Level 1",NULL,NULL
465,5b96b5df57dc8100012bef63,9,3,465,3,11,11,1,unity-loader,1,NULL,"Level 1",NULL,NULL
466,5b96b5df57dc8100012bef63,9,2,517,2,12,12,1,unity-loader,1,NULL,,NULL,NULL
467,5b96b5df57dc8100012bef63,10,3,166,3,1,1,1,unity-loader,1,NULL,"Level 1",NULL,NULL
468,5b96b5df57dc8100012bef63,10,1,300,1,2,2,1,unity-loader,1,NULL,"Level 1",NULL,NULL
469,5b96b5df57dc8100012bef63,10,3,334,3,3,3,1,unity-loader,1,NULL,"Level 1",NULL,NULL
470,5b96b5df57dc8100012bef63,10,2,300,2,4,4,1,unity-loader,1,NULL,"Level 1",NULL,NULL
471,5b96b5df57dc8100012bef63,10,0,384,0,5,5,1,unity-loader,1,NULL,"Level 1",NULL,NULL
472,5b96b5df57dc8100012bef63,10,1,301,1,6,6,1,unity-loader,1,NULL,"Level 1",NULL,NULL
473,5b96b5df57dc8100012bef63,10,0,417,0,7,7,1,unity-loader,1,NULL,"Level 1",NULL,NULL
474,5b96b5df57dc8100012bef63,10,2,367,2,8,8,1,unity-loader,1,NULL,"Level 1",NULL,NULL
475,5b96b5df57dc8100012bef63,10,1,300,1,9,9,1,unity-loader,1,NULL,"Level 1",NULL,NULL
476,5b96b5df57dc8100012bef63,10,0,433,0,10,10,1,unity-loader,1,NULL,"Level 1",NULL,NULL
477,5b96b5df57dc8100012bef63,10,3,333,3,11,11,1,unity-loader,1,NULL,"Level 1",NULL,NULL
478,5b96b5df57dc8100012bef63,10,2,333,1,12,12,1,unity-loader,0,NULL,"Level 1",NULL,NULL
479,5b96b5df57dc8100012bef63,10,2,1267,3,12,12,1,unity-loader,0,NULL,"Level 1",NULL,NULL
480,5b96b5df57dc8100012bef63,10,2,2900,2,12,12,1,unity-loader,1,NULL,,NULL,NULL
481,5b96b5df57dc8100012bef63,11,3,166,3,1,1,1,unity-loader,1,NULL,"Level 1",NULL,NULL
482,5b96b5df57dc8100012bef63,11,1,367,1,2,2,1,unity-loader,1,NULL,"Level 1",NULL,NULL
483,5b96b5df57dc8100012bef63,11,3,267,2,3,3,1,unity-loader,0,NULL,"Level 1",NULL,NULL
484,5b96b5df57dc8100012bef63,11,3,1417,3,3,3,1,unity-loader,1,NULL,"Level 1",NULL,NULL
485,5b96b5df57dc8100012bef63,11,2,516,2,4,4,1,unity-loader,1,NULL,"Level 1",NULL,NULL
486,5b96b5df57dc8100012bef63,11,0,450,0,5,5,1,unity-loader,1,NULL,"Level 1",NULL,NULL
487,5b96b5df57dc8100012bef63,11,1,483,1,6,6,1,unity-loader,1,NULL,"Level 1",NULL,NULL
488,5b96b5df57dc8100012bef63,11,0,535,0,7,7,1,unity-loader,1,NULL,"Level 1",NULL,NULL
489,5b96b5df57dc8100012bef63,11,2,516,2,8,8,1,unity-loader,1,NULL,"Level 1",NULL,NULL
490,5b96b5df57dc8100012bef63,11,1,433,1,9,9,1,unity-loader,1,NULL,"Level 1",NULL,NULL
491,5b96b5df57dc8100012bef63,11,0,334,0,10,10,1,unity-loader,1,NULL,"Level 1",NULL,NULL
492,5b96b5df57dc8100012bef63,11,3,184,3,11,11,1,unity-loader,1,NULL,"Level 1",NULL,NULL
493,5b96b5df57dc8100012bef63,11,2,368,1,12,12,1,unity-loader,0,NULL,"Level 1",NULL,NULL
494,5b96b5df57dc8100012bef63,11,2,1317,2,12,12,1,unity-loader,1,NULL,,NULL,NULL
495,5b96b5df57dc8100012bef63,12,3,250,3,1,1,1,unity-loader,1,NULL,"Level 1",NULL,NULL
496,5b96b5df57dc8100012bef63,12,1,449,1,2,2,1,unity-loader,1,NULL,"Level 1",NULL,NULL
497,5b96b5df57dc8100012bef63,12,3,300,3,3,3,1,unity-loader,1,NULL,"Level 1",NULL,NULL
498,5b96b5df57dc8100012bef63,12,2,168,2,4,4,1,unity-loader,1,NULL,"Level 1",NULL,NULL
499,5b96b5df57dc8100012bef63,12,0,468,0,5,5,1,unity-loader,1,NULL,"Level 1",NULL,NULL
500,5b96b5df57dc8100012bef63,12,1,349,1,6,6,1,unity-loader,1,NULL,"Level 1",NULL,NULL
501,5b96b5df57dc8100012bef63,12,0,484,0,7,7,1,unity-loader,1,NULL,"Level 1",NULL,NULL
502,5b96b5df57dc8100012bef63,12,2,184,3,8,8,1,unity-loader,0,NULL,"Level 1",NULL,NULL
503,5b96b5df57dc8100012bef63,12,2,1767,2,8,8,1,unity-loader,1,NULL,"Level 1",NULL,NULL
504,5b96b5df57dc8100012bef63,12,1,449,1,9,9,1,unity-loader,1,NULL,"Level 1",NULL,NULL
505,5b96b5df57dc8100012bef63,12,0,416,0,10,10,1,unity-loader,1,NULL,"Level 1",NULL,NULL
506,5b96b5df57dc8100012bef63,12,3,368,3,11,11,1,unity-loader,1,NULL,"Level 1",NULL,NULL
507,5b96b5df57dc8100012bef63,12,2,516,2,12,12,1,unity-loader,1,NULL,,NULL,NULL
508,5b96b5df57dc8100012bef63,13,3,133,3,1,1,1,unity-loader,1,NULL,"Level 1",NULL,NULL
509,5b96b5df57dc8100012bef63,13,1,301,1,2,2,1,unity-loader,1,NULL,"Level 1",NULL,NULL
510,5b96b5df57dc8100012bef63,13,3,116,3,3,3,1,unity-loader,1,NULL,"Level 1",NULL,NULL
511,5b96b5df57dc8100012bef63,13,2,249,2,4,4,1,unity-loader,1,NULL,"Level 1",NULL,NULL
512,5b96b5df57dc8100012bef63,13,0,283,0,5,5,1,unity-loader,1,NULL,"Level 1",NULL,NULL
513,5b96b5df57dc8100012bef63,13,1,383,2,6,6,1,unity-loader,0,NULL,"Level 1",NULL,NULL
514,5b96b5df57dc8100012bef63,13,1,3250,1,6,6,1,unity-loader,1,NULL,"Level 1",NULL,NULL
515,5b96b5df57dc8100012bef63,13,0,434,0,7,7,1,unity-loader,1,NULL,"Level 1",NULL,NULL
516,5b96b5df57dc8100012bef63,13,2,550,2,8,8,1,unity-loader,1,NULL,"Level 1",NULL,NULL
517,5b96b5df57dc8100012bef63,13,1,367,1,9,9,1,unity-loader,1,NULL,"Level 1",NULL,NULL
518,5b96b5df57dc8100012bef63,13,0,498,0,10,10,1,unity-loader,1,NULL,"Level 1",NULL,NULL
519,5b96b5df57dc8100012bef63,13,3,300,3,11,11,1,unity-loader,1,NULL,"Level 1",NULL,NULL
520,5b96b5df57dc8100012bef63,13,2,483,2,12,12,1,unity-loader,1,NULL,,NULL,NULL
521,5b96b5df57dc8100012bef63,14,3,133,3,1,1,1,unity-loader,1,NULL,"Level 1",NULL,NULL
522,5b96b5df57dc8100012bef63,14,1,283,1,2,2,1,unity-loader,1,NULL,"Level 1",NULL,NULL
523,5b96b5df57dc8100012bef63,14,3,267,3,3,3,1,unity-loader,1,NULL,"Level 1",NULL,NULL
524,5b96b5df57dc8100012bef63,14,2,166,2,4,4,1,unity-loader,1,NULL,"Level 1",NULL,NULL
525,5b96b5df57dc8100012bef63,14,0,332,0,5,5,1,unity-loader,1,NULL,"Level 1",NULL,NULL
526,5b96b5df57dc8100012bef63,14,1,433,1,6,6,1,unity-loader,1,NULL,"Level 1",NULL,NULL
527,5b96b5df57dc8100012bef63,14,0,400,0,7,7,1,unity-loader,1,NULL,"Level 1",NULL,NULL
528,5b96b5df57dc8100012bef63,14,2,334,2,8,8,1,unity-loader,1,NULL,"Level 1",NULL,NULL
529,5b96b5df57dc8100012bef63,14,1,349,1,9,9,1,unity-loader,1,NULL,"Level 1",NULL,NULL
530,5b96b5df57dc8100012bef63,14,0,451,0,10,10,1,unity-loader,1,NULL,"Level 1",NULL,NULL
531,5b96b5df57dc8100012bef63,14,3,299,3,11,11,1,unity-loader,1,NULL,"Level 1",NULL,NULL
532,5b96b5df57dc8100012bef63,14,2,367,2,12,12,1,unity-loader,1,NULL,,NULL,NULL
533,5b96b5df57dc8100012bef63,15,3,183,3,1,1,1,unity-loader,1,NULL,"Level 1",NULL,NULL
534,5b96b5df57dc8100012bef63,15,1,266,1,2,2,1,unity-loader,1,NULL,"Level 1",NULL,NULL
535,5b96b5df57dc8100012bef63,15,3,367,2,3,3,1,unity-loader,0,NULL,"Level 1",NULL,NULL
536,5b96b5df57dc8100012bef63,15,3,1383,3,3,3,1,unity-loader,1,NULL,"Level 1",NULL,NULL
537,5b96b5df57dc8100012bef63,15,2,200,2,4,4,1,unity-loader,1,NULL,"Level 1",NULL,NULL
538,5b96b5df57dc8100012bef63,15,0,318,1,5,5,1,unity-loader,0,NULL,"Level 1",NULL,NULL
539,5b96b5df57dc8100012bef63,15,0,1334,0,5,5,1,unity-loader,1,NULL,"Level 1",NULL,NULL
540,5b96b5df57dc8100012bef63,15,1,434,2,6,6,1,unity-loader,0,NULL,"Level 1",NULL,NULL
541,5b96b5df57dc8100012bef63,15,1,1867,1,6,6,1,unity-loader,1,NULL,"Level 1",NULL,NULL
542,5b96b5df57dc8100012bef63,15,0,433,0,7,7,1,unity-loader,1,NULL,"Level 1",NULL,NULL
543,5b96b5df57dc8100012bef63,15,2,351,2,8,8,1,unity-loader,1,NULL,"Level 1",NULL,NULL
544,5b96b5df57dc8100012bef63,15,1,333,1,9,9,1,unity-loader,1,NULL,"Level 1",NULL,NULL
545,5b96b5df57dc8100012bef63,15,0,266,3,10,10,1,unity-loader,0,NULL,"Level 1",NULL,NULL
546,5b96b5df57dc8100012bef63,15,0,1766,0,10,10,1,unity-loader,1,NULL,"Level 1",NULL,NULL
547,5b96b5df57dc8100012bef63,15,3,450,3,11,11,1,unity-loader,1,NULL,"Level 1",NULL,NULL
548,5b96b5df57dc8100012bef63,15,2,417,2,12,12,1,unity-loader,1,NULL,,NULL,NULL
549,5b96b5df57dc8100012bef63,16,3,150,3,1,1,1,unity-loader,1,NULL,"Level 1",NULL,NULL
550,5b96b5df57dc8100012bef63,16,1,349,1,2,2,1,unity-loader,1,NULL,"Level 1",NULL,NULL
551,5b96b5df57dc8100012bef63,16,3,200,3,3,3,1,unity-loader,1,NULL,"Level 1",NULL,NULL
552,5b96b5df57dc8100012bef63,16,2,250,2,4,4,1,unity-loader,1,NULL,"Level 1",NULL,NULL
553,5b96b5df57dc8100012bef63,16,0,283,0,5,5,1,unity-loader,1,NULL,"Level 1",NULL,NULL
554,5b96b5df57dc8100012bef63,16,1,332,1,6,6,1,unity-loader,1,NULL,"Level 1",NULL,NULL
555,5b96b5df57dc8100012bef63,16,0,316,0,7,7,1,unity-loader,1,NULL,"Level 1",NULL,NULL
556,5b96b5df57dc8100012bef63,16,2,383,2,8,8,1,unity-loader,1,NULL,"Level 1",NULL,NULL
557,5b96b5df57dc8100012bef63,16,1,435,1,9,9,1,unity-loader,1,NULL,"Level 1",NULL,NULL
558,5b96b5df57dc8100012bef63,16,0,366,0,10,10,1,unity-loader,1,NULL,"Level 1",NULL,NULL
559,5b96b5df57dc8100012bef63,16,3,418,3,11,11,1,unity-loader,1,NULL,"Level 1",NULL,NULL
560,5b96b5df57dc8100012bef63,16,2,451,2,12,12,1,unity-loader,1,NULL,,NULL,NULL
561,5b96b5df57dc8100012bef63,17,3,217,3,1,1,1,unity-loader,1,NULL,"Level 1",NULL,NULL
562,5b96b5df57dc8100012bef63,17,1,300,1,2,2,1,unity-loader,1,NULL,"Level 1",NULL,NULL
563,5b96b5df57dc8100012bef63,17,3,84,3,3,3,1,unity-loader,1,NULL,"Level 1",NULL,NULL
564,5b96b5df57dc8100012bef63,17,2,16,2,4,4,1,unity-loader,1,NULL,"Level 1",NULL,NULL
565,5b96b5df57dc8100012bef63,17,0,349,0,5,5,1,unity-loader,1,NULL,"Level 1",NULL,NULL
566,5b96b5df57dc8100012bef63,17,1,501,1,6,6,1,unity-loader,1,NULL,"Level 1",NULL,NULL
567,5b96b5df57dc8100012bef63,17,0,333,0,7,7,1,unity-loader,1,NULL,"Level 1",NULL,NULL
568,5b96b5df57dc8100012bef63,17,2,300,3,8,8,1,unity-loader,0,NULL,"Level 1",NULL,NULL
569,5b96b5df57dc8100012bef63,17,2,1250,2,8,8,1,unity-loader,1,NULL,"Level 1",NULL,NULL
570,5b96b5df57dc8100012bef63,17,1,350,1,9,9,1,unity-loader,1,NULL,"Level 1",NULL,NULL
571,5b96b5df57dc8100012bef63,17,0,448,0,10,10,1,unity-loader,1,NULL,"Level 1",NULL,NULL
572,5b96b5df57dc8100012bef63,17,3,283,3,11,11,1,unity-loader,1,NULL,"Level 1",NULL,NULL
573,5b96b5df57dc8100012bef63,17,2,334,1,12,12,1,unity-loader,0,NULL,"Level 1",NULL,NULL
574,5b96b5df57dc8100012bef63,17,2,1836,2,12,12,1,unity-loader,1,NULL,,NULL,NULL
575,5b96b5df57dc8100012bef63,18,3,83,3,1,1,1,unity-loader,1,NULL,"Level 1",NULL,NULL
576,5b96b5df57dc8100012bef63,18,1,67,1,2,2,1,unity-loader,1,NULL,"Level 1",NULL,NULL
577,5b96b5df57dc8100012bef63,18,3,17,3,3,3,1,unity-loader,1,NULL,"Level 1",NULL,NULL
578,5b96b5df57dc8100012bef63,18,2,566,2,4,4,1,unity-loader,1,NULL,"Level 1",NULL,NULL
579,5b96b5df57dc8100012bef63,18,0,350,0,5,5,1,unity-loader,1,NULL,"Level 1",NULL,NULL
580,5b96b5df57dc8100012bef63,18,1,250,2,6,6,1,unity-loader,0,NULL,"Level 1",NULL,NULL
581,5b96b5df57dc8100012bef63,18,1,1683,1,6,6,1,unity-loader,1,NULL,"Level 1",NULL,NULL
582,5b96b5df57dc8100012bef63,18,0,500,0,7,7,1,unity-loader,1,NULL,"Level 1",NULL,NULL
583,5b96b5df57dc8100012bef63,18,2,634,2,8,8,1,unity-loader,1,NULL,"Level 1",NULL,NULL
584,5b96b5df57dc8100012bef63,18,1,384,1,9,9,1,unity-loader,1,NULL,"Level 1",NULL,NULL
585,5b96b5df57dc8100012bef63,18,0,483,0,10,10,1,unity-loader,1,NULL,"Level 1",NULL,NULL
586,5b96b5df57dc8100012bef63,18,3,283,3,11,11,1,unity-loader,1,NULL,"Level 1",NULL,NULL
587,5b96b5df57dc8100012bef63,18,2,366,2,12,12,1,unity-loader,1,NULL,,NULL,NULL
588,5b96b5df57dc8100012bef63,19,3,50,3,1,1,1,unity-loader,1,NULL,"Level 1",NULL,NULL
589,5b96b5df57dc8100012bef63,19,1,250,1,2,2,1,unity-loader,1,NULL,"Level 1",NULL,NULL
590,5b96b5df57dc8100012bef63,19,3,349,3,3,3,1,unity-loader,1,NULL,"Level 1",NULL,NULL
591,5b96b5df57dc8100012bef63,19,2,185,2,4,4,1,unity-loader,1,NULL,"Level 1",NULL,NULL
592,5b96b5df57dc8100012bef63,19,0,300,0,5,5,1,unity-loader,1,NULL,"Level 1",NULL,NULL
593,5b96b5df57dc8100012bef63,19,1,300,2,6,6,1,unity-loader,0,NULL,"Level 1",NULL,NULL
594,5b96b5df57dc8100012bef63,19,1,1449,1,6,6,1,unity-loader,1,NULL,"Level 1",NULL,NULL
595,5b96b5df57dc8100012bef63,19,0,334,0,7,7,1,unity-loader,1,NULL,"Level 1",NULL,NULL
596,5b96b5df57dc8100012bef63,19,2,468,2,8,8,1,unity-loader,1,NULL,"Level 1",NULL,NULL
597,5b96b5df57dc8100012bef63,19,1,383,1,9,9,1,unity-loader,1,NULL,"Level 1",NULL,NULL
598,5b96b5df57dc8100012bef63,19,0,433,0,10,10,1,unity-loader,1,NULL,"Level 1",NULL,NULL
599,5b96b5df57dc8100012bef63,19,3,398,3,11,11,1,unity-loader,1,NULL,"Level 1",NULL,NULL
600,5b96b5df57dc8100012bef63,19,2,416,2,12,12,1,unity-loader,1,NULL,,NULL,NULL
601,5b96b5df57dc8100012bef63,20,3,117,3,1,1,1,unity-loader,1,NULL,"Level 1",NULL,NULL
602,5b96b5df57dc8100012bef63,20,1,266,1,2,2,1,unity-loader,1,NULL,"Level 1",NULL,NULL
603,5b96b5df57dc8100012bef63,20,3,167,3,3,3,1,unity-loader,1,NULL,"Level 1",NULL,NULL
604,5b96b5df57dc8100012bef63,20,2,400,2,4,4,1,unity-loader,1,NULL,"Level 1",NULL,NULL
605,5b96b5df57dc8100012bef63,20,0,284,0,5,5,1,unity-loader,1,NULL,"Level 1",NULL,NULL
606,5b96b5df57dc8100012bef63,20,1,334,1,6,6,1,unity-loader,1,NULL,"Level 1",NULL,NULL
607,5b96b5df57dc8100012bef63,20,0,300,0,7,7,1,unity-loader,1,NULL,"Level 1",NULL,NULL
608,5b96b5df57dc8100012bef63,20,2,384,2,8,8,1,unity-loader,1,NULL,"Level 1",NULL,NULL
609,5b96b5df57dc8100012bef63,20,1,384,1,9,9,1,unity-loader,1,NULL,"Level 1",NULL,NULL
610,5b96b5df57dc8100012bef63,20,0,467,0,10,10,1,unity-loader,1,NULL,"Level 1",NULL,NULL
611,5b96b5df57dc8100012bef63,20,3,267,3,11,11,1,unity-loader,1,NULL,"Level 1",NULL,NULL
612,5b96b5df57dc8100012bef63,20,2,167,2,12,12,1,unity-loader,1,NULL,,NULL,NULL
613,5b96b5df57dc8100012bef63,21,3,83,3,1,1,1,unity-loader,1,NULL,"Level 1",NULL,NULL
614,5b96b5df57dc8100012bef63,21,1,249,1,2,2,1,unity-loader,1,NULL,"Level 1",NULL,NULL
615,5b96b5df57dc8100012bef63,21,3,51,3,3,3,1,unity-loader,1,NULL,"Level 1",NULL,NULL
616,5b96b5df57dc8100012bef63,21,2,399,2,4,4,1,unity-loader,1,NULL,"Level 1",NULL,NULL
617,5b96b5df57dc8100012bef63,21,0,318,0,5,5,1,unity-loader,1,NULL,"Level 1",NULL,NULL
618,5b96b5df57dc8100012bef63,21,1,367,1,6,6,1,unity-loader,1,NULL,"Level 1",NULL,NULL
619,5b96b5df57dc8100012bef63,21,0,333,0,7,7,1,unity-loader,1,NULL,"Level 1",NULL,NULL
620,5b96b5df57dc8100012bef63,21,2,383,2,8,8,1,unity-loader,1,NULL,"Level 1",NULL,NULL
621,5b96b5df57dc8100012bef63,21,1,399,1,9,9,1,unity-loader,1,NULL,"Level 1",NULL,NULL
622,5b96b5df57dc8100012bef63,21,0,400,0,10,10,1,unity-loader,1,NULL,"Level 1",NULL,NULL
623,5b96b5df57dc8100012bef63,21,3,233,3,11,11,1,unity-loader,1,NULL,"Level 1",NULL,NULL
624,5b96b5df57dc8100012bef63,21,2,367,2,12,12,1,unity-loader,1,NULL,,NULL,NULL
625,5b96b5df57dc8100012bef63,22,3,233,3,1,1,1,unity-loader,1,NULL,"Level 1",NULL,NULL
626,5b96b5df57dc8100012bef63,22,1,83,1,2,2,1,unity-loader,1,NULL,"Level 1",NULL,NULL
627,5b96b5df57dc8100012bef63,22,3,150,3,3,3,1,unity-loader,1,NULL,"Level 1",NULL,NULL
628,5b96b5df57dc8100012bef63,22,2,50,2,4,4,1,unity-loader,1,NULL,"Level 1",NULL,NULL
629,5b96b5df57dc8100012bef63,22,0,267,0,5,5,1,unity-loader,1,NULL,"Level 1",NULL,NULL
630,5b96b5df57dc8100012bef63,22,1,300,1,6,6,1,unity-loader,1,NULL,"Level 1",NULL,NULL
631,5b96b5df57dc8100012bef63,22,0,384,0,7,7,1,unity-loader,1,NULL,"Level 1",NULL,NULL
632,5b96b5df57dc8100012bef63,22,2,200,2,8,8,1,unity-loader,1,NULL,"Level 1",NULL,NULL
633,5b96b5df57dc8100012bef63,22,1,366,1,9,9,1,unity-loader,1,NULL,"Level 1",NULL,NULL
634,5b96b5df57dc8100012bef63,22,0,366,0,10,10,1,unity-loader,1,NULL,"Level 1",NULL,NULL
635,5b96b5df57dc8100012bef63,22,3,17,3,11,11,1,unity-loader,1,NULL,"Level 1",NULL,NULL
636,5b96b5df57dc8100012bef63,22,2,84,2,12,12,1,unity-loader,1,NULL,,NULL,NULL
637,5b96b5df57dc8100012bef63,23,3,116,3,1,1,1,unity-loader,1,NULL,"Level 1",NULL,NULL
638,5b96b5df57dc8100012bef63,23,1,317,1,2,2,1,unity-loader,1,NULL,"Level 1",NULL,NULL
639,5b96b5df57dc8100012bef63,23,3,250,3,3,3,1,unity-loader,1,NULL,"Level 1",NULL,NULL
640,5b96b5df57dc8100012bef63,23,2,300,2,4,4,1,unity-loader,1,NULL,"Level 1",NULL,NULL
641,5b96b5df57dc8100012bef63,23,0,383,0,5,5,1,unity-loader,1,NULL,"Level 1",NULL,NULL
642,5b96b5df57dc8100012bef63,23,1,301,1,6,6,1,unity-loader,1,NULL,"Level 1",NULL,NULL
643,5b96b5df57dc8100012bef63,23,0,533,0,7,7,1,unity-loader,1,NULL,"Level 1",NULL,NULL
644,5b96b5df57dc8100012bef63,23,2,268,2,8,8,1,unity-loader,1,NULL,"Level 1",NULL,NULL
645,5b96b5df57dc8100012bef63,23,1,384,0,9,9,1,unity-loader,0,NULL,"Level 1",NULL,NULL
646,5b96b5df57dc8100012bef63,23,1,1917,1,9,9,1,unity-loader,1,NULL,"Level 1",NULL,NULL
647,5b96b5df57dc8100012bef63,23,0,234,3,10,10,1,unity-loader,0,NULL,"Level 1",NULL,NULL
648,5b96b5df57dc8100012bef63,23,0,1283,0,10,10,1,unity-loader,1,NULL,"Level 1",NULL,NULL
649,5b96b5df57dc8100012bef63,23,3,167,3,11,11,1,unity-loader,1,NULL,"Level 1",NULL,NULL
650,5b96b5df57dc8100012bef63,23,2,368,2,12,12,1,unity-loader,1,NULL,,NULL,NULL
651,5b96b5df57dc8100012bef63,24,3,151,3,1,1,1,unity-loader,1,NULL,"Level 1",NULL,NULL
652,5b96b5df57dc8100012bef63,24,1,200,1,2,2,1,unity-loader,1,NULL,"Level 1",NULL,NULL
653,5b96b5df57dc8100012bef63,24,3,317,3,3,3,1,unity-loader,1,NULL,"Level 1",NULL,NULL
654,5b96b5df57dc8100012bef63,24,2,84,2,4,4,1,unity-loader,1,NULL,"Level 1",NULL,NULL
655,5b96b5df57dc8100012bef63,24,0,433,0,5,5,1,unity-loader,1,NULL,"Level 1",NULL,NULL
656,5b96b5df57dc8100012bef63,24,1,367,1,6,6,1,unity-loader,1,NULL,"Level 1",NULL,NULL
657,5b96b5df57dc8100012bef63,24,0,333,0,7,7,1,unity-loader,1,NULL,"Level 1",NULL,NULL
658,5b96b5df57dc8100012bef63,24,2,318,2,8,8,1,unity-loader,1,NULL,"Level 1",NULL,NULL
659,5b96b5df57dc8100012bef63,24,1,634,0,9,9,1,unity-loader,0,NULL,"Level 1",NULL,NULL
660,5b96b5df57dc8100012bef63,24,1,2467,1,9,9,1,unity-loader,1,NULL,"Level 1",NULL,NULL
661,5b96b5df57dc8100012bef63,24,0,450,0,10,10,1,unity-loader,1,NULL,"Level 1",NULL,NULL
662,5b96b5df57dc8100012bef63,24,3,99,3,11,11,1,unity-loader,1,NULL,"Level 1",NULL,NULL
663,5b96b5df57dc8100012bef63,24,2,116,2,12,12,1,unity-loader,1,NULL,,NULL,NULL
664,5b96b5df57dc8100012bef63,25,3,283,3,1,1,1,unity-loader,1,NULL,"Level 1",NULL,NULL
665,5b96b5df57dc8100012bef63,25,1,235,1,2,2,1,unity-loader,1,NULL,"Level 1",NULL,NULL
666,5b96b5df57dc8100012bef63,25,3,199,3,3,3,1,unity-loader,1,NULL,"Level 1",NULL,NULL
667,5b96b5df57dc8100012bef63,25,2,216,2,4,4,1,unity-loader,1,NULL,"Level 1",NULL,NULL
668,5b96b5df57dc8100012bef63,25,0,383,0,5,5,1,unity-loader,1,NULL,"Level 1",NULL,NULL
669,5b96b5df57dc8100012bef63,25,1,300,1,6,6,1,unity-loader,1,NULL,"Level 1",NULL,NULL
670,5b96b5df57dc8100012bef63,25,0,316,0,7,7,1,unity-loader,1,NULL,"Level 1",NULL,NULL
671,5b96b5df57dc8100012bef63,25,2,183,2,8,8,1,unity-loader,1,NULL,"Level 1",NULL,NULL
672,5b96b5df57dc8100012bef63,25,1,400,0,9,9,1,unity-loader,0,NULL,"Level 1",NULL,NULL
673,5b96b5df57dc8100012bef63,25,1,2116,1,9,9,1,unity-loader,1,NULL,"Level 1",NULL,NULL
674,5b96b5df57dc8100012bef63,25,0,349,0,10,10,1,unity-loader,1,NULL,"Level 1",NULL,NULL
675,5b96b5df57dc8100012bef63,25,3,282,3,11,11,1,unity-loader,1,NULL,"Level 1",NULL,NULL
676,5b96b5df57dc8100012bef63,25,2,367,2,12,12,1,unity-loader,1,NULL,,NULL,NULL
677,5b96b5df57dc8100012bef63,26,3,282,3,1,1,1,unity-loader,1,NULL,"Level 1",NULL,NULL
678,5b96b5df57dc8100012bef63,26,1,250,1,2,2,1,unity-loader,1,NULL,"Level 1",NULL,NULL
679,5b96b5df57dc8100012bef63,26,3,83,3,3,3,1,unity-loader,1,NULL,"Level 1",NULL,NULL
680,5b96b5df57dc8100012bef63,26,2,350,2,4,4,1,unity-loader,1,NULL,"Level 1",NULL,NULL
681,5b96b5df57dc8100012bef63,26,0,517,1,5,5,1,unity-loader,0,NULL,"Level 1",NULL,NULL
682,5b96b5df57dc8100012bef63,26,0,2949,0,5,5,1,unity-loader,1,NULL,"Level 1",NULL,NULL
683,5b96b5df57dc8100012bef63,26,1,417,1,6,6,1,unity-loader,1,NULL,"Level 1",NULL,NULL
684,5b96b5df57dc8100012bef63,26,0,334,0,7,7,1,unity-loader,1,NULL,"Level 1",NULL,NULL
685,5b96b5df57dc8100012bef63,26,2,233,2,8,8,1,unity-loader,1,NULL,"Level 1",NULL,NULL
686,5b96b5df57dc8100012bef63,26,1,650,1,9,9,1,unity-loader,1,NULL,"Level 1",NULL,NULL
687,5b96b5df57dc8100012bef63,26,0,467,0,10,10,1,unity-loader,1,NULL,"Level 1",NULL,NULL
688,5b96b5df57dc8100012bef63,26,3,217,3,11,11,1,unity-loader,1,NULL,"Level 1",NULL,NULL
689,5b96b5df57dc8100012bef63,26,2,300,2,12,12,1,unity-loader,1,NULL,,NULL,NULL
690,5b96b5df57dc8100012bef63,27,3,366,3,1,1,1,unity-loader,1,NULL,"Level 1",NULL,NULL
691,5b96b5df57dc8100012bef63,27,1,67,1,2,2,1,unity-loader,1,NULL,"Level 1",NULL,NULL
692,5b96b5df57dc8100012bef63,27,3,200,3,3,3,1,unity-loader,1,NULL,"Level 1",NULL,NULL
693,5b96b5df57dc8100012bef63,27,2,166,2,4,4,1,unity-loader,1,NULL,"Level 1",NULL,NULL
694,5b96b5df57dc8100012bef63,27,0,284,0,5,5,1,unity-loader,1,NULL,"Level 1",NULL,NULL
695,5b96b5df57dc8100012bef63,27,1,67,1,6,6,1,unity-loader,1,NULL,"Level 1",NULL,NULL
696,5b96b5df57dc8100012bef63,27,0,266,0,7,7,1,unity-loader,1,NULL,"Level 1",NULL,NULL
697,5b96b5df57dc8100012bef63,27,2,84,3,8,8,1,unity-loader,0,NULL,"Level 1",NULL,NULL
698,5b96b5df57dc8100012bef63,27,2,1199,2,8,8,1,unity-loader,1,NULL,"Level 1",NULL,NULL
699,5b96b5df57dc8100012bef63,27,1,401,1,9,9,1,unity-loader,1,NULL,"Level 1",NULL,NULL
700,5b96b5df57dc8100012bef63,27,0,418,0,10,10,1,unity-loader,1,NULL,"Level 1",NULL,NULL
701,5b96b5df57dc8100012bef63,27,3,299,3,11,11,1,unity-loader,1,NULL,"Level 1",NULL,NULL
702,5b96b5df57dc8100012bef63,27,2,400,2,12,12,1,unity-loader,1,NULL,,NULL,NULL
703,5b96b5df57dc8100012bef63,28,3,218,3,1,1,1,unity-loader,1,NULL,"Level 1",NULL,NULL
704,5b96b5df57dc8100012bef63,28,1,49,1,2,2,1,unity-loader,1,NULL,"Level 1",NULL,NULL
705,5b96b5df57dc8100012bef63,28,3,382,3,3,3,1,unity-loader,1,NULL,"Level 1",NULL,NULL
706,5b96b5df57dc8100012bef63,28,2,165,2,4,4,1,unity-loader,1,NULL,"Level 1",NULL,NULL
707,5b96b5df57dc8100012bef63,28,0,383,0,5,5,1,unity-loader,1,NULL,"Level 1",NULL,NULL
708,5b96b5df57dc8100012bef63,28,1,233,1,6,6,1,unity-loader,1,NULL,"Level 1",NULL,NULL
709,5b96b5df57dc8100012bef63,28,0,216,0,7,7,1,unity-loader,1,NULL,"Level 1",NULL,NULL
710,5b96b5df57dc8100012bef63,28,2,184,3,8,8,1,unity-loader,0,NULL,"Level 1",NULL,NULL
711,5b96b5df57dc8100012bef63,28,2,1218,2,8,8,1,unity-loader,1,NULL,"Level 1",NULL,NULL
712,5b96b5df57dc8100012bef63,28,1,567,2,9,9,1,unity-loader,0,NULL,"Level 1",NULL,NULL
713,5b96b5df57dc8100012bef63,28,1,1499,1,9,9,1,unity-loader,1,NULL,"Level 1",NULL,NULL
714,5b96b5df57dc8100012bef63,28,0,417,0,10,10,1,unity-loader,1,NULL,"Level 1",NULL,NULL
715,5b96b5df57dc8100012bef63,28,3,333,3,11,11,1,unity-loader,1,NULL,"Level 1",NULL,NULL
716,5b96b5df57dc8100012bef63,28,2,132,2,12,12,1,unity-loader,1,NULL,,NULL,NULL
717,5b96b5df57dc8100012bef63,29,3,234,3,1,1,1,unity-loader,1,NULL,"Level 1",NULL,NULL
718,5b96b5df57dc8100012bef63,29,1,200,1,2,2,1,unity-loader,1,NULL,"Level 1",NULL,NULL
719,5b96b5df57dc8100012bef63,29,3,84,3,3,3,1,unity-loader,1,NULL,"Level 1",NULL,NULL
720,5b96b5df57dc8100012bef63,29,2,183,2,4,4,1,unity-loader,1,NULL,"Level 1",NULL,NULL
721,5b96b5df57dc8100012bef63,29,0,367,0,5,5,1,unity-loader,1,NULL,"Level 1",NULL,NULL
722,5b96b5df57dc8100012bef63,29,1,284,1,6,6,1,unity-loader,1,NULL,"Level 1",NULL,NULL
723,5b96b5df57dc8100012bef63,29,0,366,0,7,7,1,unity-loader,1,NULL,"Level 1",NULL,NULL
724,5b96b5df57dc8100012bef63,29,2,251,3,8,8,1,unity-loader,0,NULL,"Level 1",NULL,NULL
725,5b96b5df57dc8100012bef63,29,2,1349,2,8,8,1,unity-loader,1,NULL,"Level 1",NULL,NULL
726,5b96b5df57dc8100012bef63,29,1,483,1,9,9,1,unity-loader,1,NULL,"Level 1",NULL,NULL
727,5b96b5df57dc8100012bef63,29,0,249,0,10,10,1,unity-loader,1,NULL,"Level 1",NULL,NULL
728,5b96b5df57dc8100012bef63,29,3,150,3,11,11,1,unity-loader,1,NULL,"Level 1",NULL,NULL
729,5b96b5df57dc8100012bef63,29,2,216,2,12,12,1,unity-loader,1,NULL,,NULL,NULL
730,5b96b5df57dc8100012bef63,30,3,150,3,1,1,1,unity-loader,1,NULL,"Level 1",NULL,NULL
731,5b96b5df57dc8100012bef63,30,1,166,1,2,2,1,unity-loader,1,NULL,"Level 1",NULL,NULL
732,5b96b5df57dc8100012bef63,30,3,317,3,3,3,1,unity-loader,1,NULL,"Level 1",NULL,NULL
733,5b96b5df57dc8100012bef63,30,2,167,2,4,4,1,unity-loader,1,NULL,"Level 1",NULL,NULL
734,5b96b5df57dc8100012bef63,30,0,249,0,5,5,1,unity-loader,1,NULL,"Level 1",NULL,NULL
735,5b96b5df57dc8100012bef63,30,1,133,1,6,6,1,unity-loader,1,NULL,"Level 1",NULL,NULL
736,5b96b5df57dc8100012bef63,30,0,83,0,7,7,1,unity-loader,1,NULL,"Level 1",NULL,NULL
737,5b96b5df57dc8100012bef63,30,2,400,3,8,8,1,unity-loader,0,NULL,"Level 1",NULL,NULL
738,5b96b5df57dc8100012bef63,30,2,2083,2,8,8,1,unity-loader,1,NULL,"Level 1",NULL,NULL
739,5b96b5df57dc8100012bef63,30,1,549,1,9,9,1,unity-loader,1,NULL,"Level 1",NULL,NULL
740,5b96b5df57dc8100012bef63,30,0,399,0,10,10,1,unity-loader,1,NULL,"Level 1",NULL,NULL
741,5b96b5df57dc8100012bef63,30,3,250,3,11,11,1,unity-loader,1,NULL,"Level 1",NULL,NULL
742,5b96b5df57dc8100012bef63,30,2,100,2,12,12,1,unity-loader,1,NULL,,NULL,NULL
743,5b96b5df57dc8100012bef63,NULL,NULL,NULL,NULL,NULL,NULL,4,call-function,NULL,NULL,NULL,"Mozilla/5.0 (Macintosh; Intel Mac OS X 10_13_6) AppleWebKit/537.36 (KHTML, like Gecko) Chrome/68.0.3440.106 Safari/537.36",NULL
744,5b96b5df57dc8100012bef63,NULL,NULL,3061,NULL,NULL,NULL,5,html-button-response,NULL,NULL,NULL,"Mozilla/5.0 (Macintosh; Intel Mac OS X 10_13_6) AppleWebKit/537.36 (KHTML, like Gecko) Chrome/68.0.3440.106 Safari/537.36",NULL
745,5b96b5df57dc8100012bef63,NULL,NULL,9983,NULL,NULL,NULL,6,survey-text,NULL,"{"Q0":"24","Q1":"Male","Q2":"20"}",NULL,"Mozilla/5.0 (Macintosh; Intel Mac OS X 10_13_6) AppleWebKit/537.36 (KHTML, like Gecko) Chrome/68.0.3440.106 Safari/537.36",1
746,5b96b5df57dc8100012bef63,NULL,NULL,7991,NULL,NULL,NULL,7,survey-multi-select,NULL,"{"Q0":["Desktop/Laptop Web Browser"]}",NULL,"Mozilla/5.0 (Macintosh; Intel Mac OS X 10_13_6) AppleWebKit/537.36 (KHTML, like Gecko) Chrome/68.0.3440.106 Safari/537.36",2
747,5b96b5df57dc8100012bef63,NULL,NULL,15532,NULL,NULL,NULL,8,survey-multi-choice,NULL,"{"Q0":"Not sure","Q1":"Would motivate me","Q2":"Would motivate me","Q3":"Would motivate me"}",NULL,"Mozilla/5.0 (Macintosh; Intel Mac OS X 10_13_6) AppleWebKit/537.36 (KHTML, like Gecko) Chrome/68.0.3440.106 Safari/537.36",3
748,5b96b5df57dc8100012bef63,NULL,NULL,8163,NULL,NULL,NULL,9,survey-text,NULL,"{"Q0":""}",NULL,"Mozilla/5.0 (Macintosh; Intel Mac OS X 10_13_6) AppleWebKit/537.36 (KHTML, like Gecko) Chrome/68.0.3440.106 Safari/537.36",4
749,5b95a66ba2980c0001c481a6,NULL,NULL,1245,NULL,NULL,NULL,0,html-button-response,NULL,NULL,NULL,"Mozilla/5.0 (Windows NT 10.0; Win64; x64) AppleWebKit/537.36 (KHTML, like Gecko) Chrome/68.0.3440.106 Safari/537.36",NULL
750,5b95a66ba2980c0001c481a6,1,3,1500,3,1,1,1,unity-loader,1,NULL,"Level 1",NULL,NULL
751,5b95a66ba2980c0001c481a6,1,1,806,1,2,2,1,unity-loader,1,NULL,"Level 1",NULL,NULL
752,5b95a66ba2980c0001c481a6,1,3,431,3,3,3,1,unity-loader,1,NULL,"Level 1",NULL,NULL
753,5b95a66ba2980c0001c481a6,1,2,515,2,4,4,1,unity-loader,1,NULL,"Level 1",NULL,NULL
754,5b95a66ba2980c0001c481a6,1,0,589,0,5,5,1,unity-loader,1,NULL,"Level 1",NULL,NULL
755,5b95a66ba2980c0001c481a6,1,1,471,2,6,6,1,unity-loader,0,NULL,"Level 1",NULL,NULL
756,5b95a66ba2980c0001c481a6,1,1,1956,1,6,6,1,unity-loader,1,NULL,"Level 1",NULL,NULL
757,5b95a66ba2980c0001c481a6,1,0,590,0,7,7,1,unity-loader,1,NULL,"Level 1",NULL,NULL
758,5b95a66ba2980c0001c481a6,1,2,958,2,8,8,1,unity-loader,1,NULL,"Level 1",NULL,NULL
759,5b95a66ba2980c0001c481a6,1,1,639,1,9,9,1,unity-loader,1,NULL,"Level 1",NULL,NULL
760,5b95a66ba2980c0001c481a6,1,0,527,0,10,10,1,unity-loader,1,NULL,"Level 1",NULL,NULL
761,5b95a66ba2980c0001c481a6,1,3,576,3,11,11,1,unity-loader,1,NULL,"Level 1",NULL,NULL
762,5b95a66ba2980c0001c481a6,1,2,1853,1,12,12,1,unity-loader,0,NULL,"Level 1",NULL,NULL
763,5b95a66ba2980c0001c481a6,1,2,3576,2,12,12,1,unity-loader,1,NULL,,NULL,NULL
764,5b95a66ba2980c0001c481a6,2,3,687,3,1,1,1,unity-loader,1,NULL,"Level 1",NULL,NULL
765,5b95a66ba2980c0001c481a6,2,1,820,1,2,2,1,unity-loader,1,NULL,"Level 1",NULL,NULL
766,5b95a66ba2980c0001c481a6,2,3,667,3,3,3,1,unity-loader,1,NULL,"Level 1",NULL,NULL
767,5b95a66ba2980c0001c481a6,2,2,729,2,4,4,1,unity-loader,1,NULL,"Level 1",NULL,NULL
768,5b95a66ba2980c0001c481a6,2,0,590,0,5,5,1,unity-loader,1,NULL,"Level 1",NULL,NULL
769,5b95a66ba2980c0001c481a6,2,1,736,1,6,6,1,unity-loader,1,NULL,"Level 1",NULL,NULL
770,5b95a66ba2980c0001c481a6,2,0,632,0,7,7,1,unity-loader,1,NULL,"Level 1",NULL,NULL
771,5b95a66ba2980c0001c481a6,2,2,701,2,8,8,1,unity-loader,1,NULL,"Level 1",NULL,NULL
772,5b95a66ba2980c0001c481a6,2,1,646,1,9,9,1,unity-loader,1,NULL,"Level 1",NULL,NULL
773,5b95a66ba2980c0001c481a6,2,0,486,0,10,10,1,unity-loader,1,NULL,"Level 1",NULL,NULL
774,5b95a66ba2980c0001c481a6,2,3,493,3,11,11,1,unity-loader,1,NULL,"Level 1",NULL,NULL
775,5b95a66ba2980c0001c481a6,2,2,709,2,12,12,1,unity-loader,1,NULL,,NULL,NULL
776,5b95a66ba2980c0001c481a6,3,3,472,3,1,1,1,unity-loader,1,NULL,"Level 1",NULL,NULL
777,5b95a66ba2980c0001c481a6,3,1,520,1,2,2,1,unity-loader,1,NULL,"Level 1",NULL,NULL
778,5b95a66ba2980c0001c481a6,3,3,249,3,3,3,1,unity-loader,1,NULL,"Level 1",NULL,NULL
779,5b95a66ba2980c0001c481a6,3,2,326,2,4,4,1,unity-loader,1,NULL,"Level 1",NULL,NULL
780,5b95a66ba2980c0001c481a6,3,0,263,0,5,5,1,unity-loader,1,NULL,"Level 1",NULL,NULL
781,5b95a66ba2980c0001c481a6,3,1,321,2,6,6,1,unity-loader,0,NULL,"Level 1",NULL,NULL
782,5b95a66ba2980c0001c481a6,3,1,1286,1,6,6,1,unity-loader,1,NULL,"Level 1",NULL,NULL
783,5b95a66ba2980c0001c481a6,3,0,396,0,7,7,1,unity-loader,1,NULL,"Level 1",NULL,NULL
784,5b95a66ba2980c0001c481a6,3,2,508,2,8,8,1,unity-loader,1,NULL,"Level 1",NULL,NULL
785,5b95a66ba2980c0001c481a6,3,1,468,1,9,9,1,unity-loader,1,NULL,"Level 1",NULL,NULL
786,5b95a66ba2980c0001c481a6,3,0,339,0,10,10,1,unity-loader,1,NULL,"Level 1",NULL,NULL
787,5b95a66ba2980c0001c481a6,3,3,592,3,11,11,1,unity-loader,1,NULL,"Level 1",NULL,NULL
788,5b95a66ba2980c0001c481a6,3,2,479,2,12,12,1,unity-loader,1,NULL,,NULL,NULL
789,5b95a66ba2980c0001c481a6,4,3,535,3,1,1,1,unity-loader,1,NULL,"Level 1",NULL,NULL
790,5b95a66ba2980c0001c481a6,4,1,355,1,2,2,1,unity-loader,1,NULL,"Level 1",NULL,NULL
791,5b95a66ba2980c0001c481a6,4,3,228,3,3,3,1,unity-loader,1,NULL,"Level 1",NULL,NULL
792,5b95a66ba2980c0001c481a6,4,2,341,2,4,4,1,unity-loader,1,NULL,"Level 1",NULL,NULL
793,5b95a66ba2980c0001c481a6,4,0,277,1,5,5,1,unity-loader,0,NULL,"Level 1",NULL,NULL
794,5b95a66ba2980c0001c481a6,4,0,1007,0,5,5,1,unity-loader,1,NULL,"Level 1",NULL,NULL
795,5b95a66ba2980c0001c481a6,4,1,416,2,6,6,1,unity-loader,0,NULL,"Level 1",NULL,NULL
796,5b95a66ba2980c0001c481a6,4,1,1327,1,6,6,1,unity-loader,1,NULL,"Level 1",NULL,NULL
797,5b95a66ba2980c0001c481a6,4,0,431,0,7,7,1,unity-loader,1,NULL,"Level 1",NULL,NULL
798,5b95a66ba2980c0001c481a6,4,2,501,2,8,8,1,unity-loader,1,NULL,"Level 1",NULL,NULL
799,5b95a66ba2980c0001c481a6,4,1,577,1,9,9,1,unity-loader,1,NULL,"Level 1",NULL,NULL
800,5b95a66ba2980c0001c481a6,4,0,654,0,10,10,1,unity-loader,1,NULL,"Level 1",NULL,NULL
801,5b95a66ba2980c0001c481a6,4,3,367,3,11,11,1,unity-loader,1,NULL,"Level 1",NULL,NULL
802,5b95a66ba2980c0001c481a6,4,2,450,2,12,12,1,unity-loader,1,NULL,,NULL,NULL
803,5b95a66ba2980c0001c481a6,5,3,465,3,1,1,1,unity-loader,1,NULL,"Level 1",NULL,NULL
804,5b95a66ba2980c0001c481a6,5,1,547,1,2,2,1,unity-loader,1,NULL,"Level 1",NULL,NULL
805,5b95a66ba2980c0001c481a6,5,3,383,3,3,3,1,unity-loader,1,NULL,"Level 1",NULL,NULL
806,5b95a66ba2980c0001c481a6,5,2,320,2,4,4,1,unity-loader,1,NULL,"Level 1",NULL,NULL
807,5b95a66ba2980c0001c481a6,5,0,381,0,5,5,1,unity-loader,1,NULL,"Level 1",NULL,NULL
808,5b95a66ba2980c0001c481a6,5,1,417,2,6,6,1,unity-loader,0,NULL,"Level 1",NULL,NULL
809,5b95a66ba2980c0001c481a6,5,1,1292,1,6,6,1,unity-loader,1,NULL,"Level 1",NULL,NULL
810,5b95a66ba2980c0001c481a6,5,0,432,0,7,7,1,unity-loader,1,NULL,"Level 1",NULL,NULL
811,5b95a66ba2980c0001c481a6,5,2,625,2,8,8,1,unity-loader,1,NULL,"Level 1",NULL,NULL
812,5b95a66ba2980c0001c481a6,5,1,411,1,9,9,1,unity-loader,1,NULL,"Level 1",NULL,NULL
813,5b95a66ba2980c0001c481a6,5,0,348,0,10,10,1,unity-loader,1,NULL,"Level 1",NULL,NULL
814,5b95a66ba2980c0001c481a6,5,3,381,3,11,11,1,unity-loader,1,NULL,"Level 1",NULL,NULL
815,5b95a66ba2980c0001c481a6,5,2,417,2,12,12,1,unity-loader,1,NULL,,NULL,NULL
816,5b95a66ba2980c0001c481a6,6,3,532,3,1,1,1,unity-loader,1,NULL,"Level 1",NULL,NULL
817,5b95a66ba2980c0001c481a6,6,1,556,1,2,2,1,unity-loader,1,NULL,"Level 1",NULL,NULL
818,5b95a66ba2980c0001c481a6,6,3,355,3,3,3,1,unity-loader,1,NULL,"Level 1",NULL,NULL
819,5b95a66ba2980c0001c481a6,6,2,360,2,4,4,1,unity-loader,1,NULL,"Level 1",NULL,NULL
820,5b95a66ba2980c0001c481a6,6,0,500,0,5,5,1,unity-loader,1,NULL,"Level 1",NULL,NULL
821,5b95a66ba2980c0001c481a6,6,1,631,1,6,6,1,unity-loader,1,NULL,"Level 1",NULL,NULL
822,5b95a66ba2980c0001c481a6,6,0,439,0,7,7,1,unity-loader,1,NULL,"Level 1",NULL,NULL
823,5b95a66ba2980c0001c481a6,6,2,605,2,8,8,1,unity-loader,1,NULL,"Level 1",NULL,NULL
824,5b95a66ba2980c0001c481a6,6,1,425,1,9,9,1,unity-loader,1,NULL,"Level 1",NULL,NULL
825,5b95a66ba2980c0001c481a6,6,0,444,0,10,10,1,unity-loader,1,NULL,"Level 1",NULL,NULL
826,5b95a66ba2980c0001c481a6,6,3,493,3,11,11,1,unity-loader,1,NULL,"Level 1",NULL,NULL
827,5b95a66ba2980c0001c481a6,6,2,630,2,12,12,1,unity-loader,1,NULL,,NULL,NULL
828,5b95a66ba2980c0001c481a6,7,3,501,3,1,1,1,unity-loader,1,NULL,"Level 1",NULL,NULL
829,5b95a66ba2980c0001c481a6,7,1,410,1,2,2,1,unity-loader,1,NULL,"Level 1",NULL,NULL
830,5b95a66ba2980c0001c481a6,7,3,361,3,3,3,1,unity-loader,1,NULL,"Level 1",NULL,NULL
831,5b95a66ba2980c0001c481a6,7,2,494,2,4,4,1,unity-loader,1,NULL,"Level 1",NULL,NULL
832,5b95a66ba2980c0001c481a6,7,0,391,0,5,5,1,unity-loader,1,NULL,"Level 1",NULL,NULL
833,5b95a66ba2980c0001c481a6,7,1,582,1,6,6,1,unity-loader,1,NULL,"Level 1",NULL,NULL
834,5b95a66ba2980c0001c481a6,7,0,360,0,7,7,1,unity-loader,1,NULL,"Level 1",NULL,NULL
835,5b95a66ba2980c0001c481a6,7,2,562,2,8,8,1,unity-loader,1,NULL,"Level 1",NULL,NULL
836,5b95a66ba2980c0001c481a6,7,1,361,1,9,9,1,unity-loader,1,NULL,"Level 1",NULL,NULL
837,5b95a66ba2980c0001c481a6,7,0,424,0,10,10,1,unity-loader,1,NULL,"Level 1",NULL,NULL
838,5b95a66ba2980c0001c481a6,7,3,424,3,11,11,1,unity-loader,1,NULL,"Level 1",NULL,NULL
839,5b95a66ba2980c0001c481a6,7,2,577,2,12,12,1,unity-loader,1,NULL,,NULL,NULL
840,5b95a66ba2980c0001c481a6,8,3,423,3,1,1,1,unity-loader,1,NULL,"Level 1",NULL,NULL
841,5b95a66ba2980c0001c481a6,8,1,382,1,2,2,1,unity-loader,1,NULL,"Level 1",NULL,NULL
842,5b95a66ba2980c0001c481a6,8,3,262,3,3,3,1,unity-loader,1,NULL,"Level 1",NULL,NULL
843,5b95a66ba2980c0001c481a6,8,2,319,1,4,4,1,unity-loader,0,NULL,"Level 1",NULL,NULL
844,5b95a66ba2980c0001c481a6,8,2,1505,2,4,4,1,unity-loader,1,NULL,"Level 1",NULL,NULL
845,5b95a66ba2980c0001c481a6,8,0,404,0,5,5,1,unity-loader,1,NULL,"Level 1",NULL,NULL
846,5b95a66ba2980c0001c481a6,8,1,654,1,6,6,1,unity-loader,1,NULL,"Level 1",NULL,NULL
847,5b95a66ba2980c0001c481a6,8,0,431,0,7,7,1,unity-loader,1,NULL,"Level 1",NULL,NULL
848,5b95a66ba2980c0001c481a6,8,2,485,2,8,8,1,unity-loader,1,NULL,"Level 1",NULL,NULL
849,5b95a66ba2980c0001c481a6,8,1,362,1,9,9,1,unity-loader,1,NULL,"Level 1",NULL,NULL
850,5b95a66ba2980c0001c481a6,8,0,425,0,10,10,1,unity-loader,1,NULL,"Level 1",NULL,NULL
851,5b95a66ba2980c0001c481a6,8,3,376,3,11,11,1,unity-loader,1,NULL,"Level 1",NULL,NULL
852,5b95a66ba2980c0001c481a6,8,2,487,1,12,12,1,unity-loader,0,NULL,"Level 1",NULL,NULL
853,5b95a66ba2980c0001c481a6,8,2,1396,2,12,12,1,unity-loader,1,NULL,,NULL,NULL
854,5b95a66ba2980c0001c481a6,9,3,377,3,1,1,1,unity-loader,1,NULL,"Level 1",NULL,NULL
855,5b95a66ba2980c0001c481a6,9,1,332,1,2,2,1,unity-loader,1,NULL,"Level 1",NULL,NULL
856,5b95a66ba2980c0001c481a6,9,3,249,3,3,3,1,unity-loader,1,NULL,"Level 1",NULL,NULL
857,5b95a66ba2980c0001c481a6,9,2,306,2,4,4,1,unity-loader,1,NULL,"Level 1",NULL,NULL
858,5b95a66ba2980c0001c481a6,9,0,313,0,5,5,1,unity-loader,1,NULL,"Level 1",NULL,NULL
859,5b95a66ba2980c0001c481a6,9,1,571,1,6,6,1,unity-loader,1,NULL,"Level 1",NULL,NULL
860,5b95a66ba2980c0001c481a6,9,0,376,0,7,7,1,unity-loader,1,NULL,"Level 1",NULL,NULL
861,5b95a66ba2980c0001c481a6,9,2,529,2,8,8,1,unity-loader,1,NULL,"Level 1",NULL,NULL
862,5b95a66ba2980c0001c481a6,9,1,396,1,9,9,1,unity-loader,1,NULL,"Level 1",NULL,NULL
863,5b95a66ba2980c0001c481a6,9,0,382,0,10,10,1,unity-loader,1,NULL,"Level 1",NULL,NULL
864,5b95a66ba2980c0001c481a6,9,3,367,3,11,11,1,unity-loader,1,NULL,"Level 1",NULL,NULL
865,5b95a66ba2980c0001c481a6,9,2,373,2,12,12,1,unity-loader,1,NULL,,NULL,NULL
866,5b95a66ba2980c0001c481a6,10,3,404,3,1,1,1,unity-loader,1,NULL,"Level 1",NULL,NULL
867,5b95a66ba2980c0001c481a6,10,1,435,1,2,2,1,unity-loader,1,NULL,"Level 1",NULL,NULL
868,5b95a66ba2980c0001c481a6,10,3,362,3,3,3,1,unity-loader,1,NULL,"Level 1",NULL,NULL
869,5b95a66ba2980c0001c481a6,10,2,479,2,4,4,1,unity-loader,1,NULL,"Level 1",NULL,NULL
870,5b95a66ba2980c0001c481a6,10,0,430,0,5,5,1,unity-loader,1,NULL,"Level 1",NULL,NULL
871,5b95a66ba2980c0001c481a6,10,1,612,1,6,6,1,unity-loader,1,NULL,"Level 1",NULL,NULL
872,5b95a66ba2980c0001c481a6,10,0,436,0,7,7,1,unity-loader,1,NULL,"Level 1",NULL,NULL
873,5b95a66ba2980c0001c481a6,10,2,515,2,8,8,1,unity-loader,1,NULL,"Level 1",NULL,NULL
874,5b95a66ba2980c0001c481a6,10,1,319,1,9,9,1,unity-loader,1,NULL,"Level 1",NULL,NULL
875,5b95a66ba2980c0001c481a6,10,0,389,0,10,10,1,unity-loader,1,NULL,"Level 1",NULL,NULL
876,5b95a66ba2980c0001c481a6,10,3,404,3,11,11,1,unity-loader,1,NULL,"Level 1",NULL,NULL
877,5b95a66ba2980c0001c481a6,10,2,283,2,12,12,1,unity-loader,1,NULL,,NULL,NULL
878,5b95a66ba2980c0001c481a6,11,3,672,3,1,1,1,unity-loader,1,NULL,"Level 1",NULL,NULL
879,5b95a66ba2980c0001c481a6,11,1,495,1,2,2,1,unity-loader,1,NULL,"Level 1",NULL,NULL
880,5b95a66ba2980c0001c481a6,11,3,339,3,3,3,1,unity-loader,1,NULL,"Level 1",NULL,NULL
881,5b95a66ba2980c0001c481a6,11,2,637,2,4,4,1,unity-loader,1,NULL,"Level 1",NULL,NULL
882,5b95a66ba2980c0001c481a6,11,0,521,0,5,5,1,unity-loader,1,NULL,"Level 1",NULL,NULL
883,5b95a66ba2980c0001c481a6,11,1,617,1,6,6,1,unity-loader,1,NULL,"Level 1",NULL,NULL
884,5b95a66ba2980c0001c481a6,11,0,479,0,7,7,1,unity-loader,1,NULL,"Level 1",NULL,NULL
885,5b95a66ba2980c0001c481a6,11,2,799,3,8,8,1,unity-loader,0,NULL,"Level 1",NULL,NULL
886,5b95a66ba2980c0001c481a6,11,2,1833,2,8,8,1,unity-loader,1,NULL,"Level 1",NULL,NULL
887,5b95a66ba2980c0001c481a6,11,1,577,1,9,9,1,unity-loader,1,NULL,"Level 1",NULL,NULL
888,5b95a66ba2980c0001c481a6,11,0,564,0,10,10,1,unity-loader,1,NULL,"Level 1",NULL,NULL
889,5b95a66ba2980c0001c481a6,11,3,777,3,11,11,1,unity-loader,1,NULL,"Level 1",NULL,NULL
890,5b95a66ba2980c0001c481a6,11,2,703,3,12,12,1,unity-loader,0,NULL,"Level 1",NULL,NULL
891,5b95a66ba2980c0001c481a6,11,2,2153,2,12,12,1,unity-loader,1,NULL,,NULL,NULL
892,5b95a66ba2980c0001c481a6,12,3,506,3,1,1,1,unity-loader,1,NULL,"Level 1",NULL,NULL
893,5b95a66ba2980c0001c481a6,12,1,555,0,2,2,1,unity-loader,0,NULL,"Level 1",NULL,NULL
894,5b95a66ba2980c0001c481a6,12,1,1415,1,2,2,1,unity-loader,1,NULL,"Level 1",NULL,NULL
895,5b95a66ba2980c0001c481a6,12,3,610,3,3,3,1,unity-loader,1,NULL,"Level 1",NULL,NULL
896,5b95a66ba2980c0001c481a6,12,2,597,2,4,4,1,unity-loader,1,NULL,"Level 1",NULL,NULL
897,5b95a66ba2980c0001c481a6,12,0,574,0,5,5,1,unity-loader,1,NULL,"Level 1",NULL,NULL
898,5b95a66ba2980c0001c481a6,12,1,320,1,6,6,1,unity-loader,1,NULL,"Level 1",NULL,NULL
899,5b95a66ba2980c0001c481a6,12,0,363,0,7,7,1,unity-loader,1,NULL,"Level 1",NULL,NULL
900,5b95a66ba2980c0001c481a6,12,2,417,3,8,8,1,unity-loader,0,NULL,"Level 1",NULL,NULL
901,5b95a66ba2980c0001c481a6,12,2,1152,2,8,8,1,unity-loader,1,NULL,"Level 1",NULL,NULL
902,5b95a66ba2980c0001c481a6,12,1,653,1,9,9,1,unity-loader,1,NULL,"Level 1",NULL,NULL
903,5b95a66ba2980c0001c481a6,12,0,367,0,10,10,1,unity-loader,1,NULL,"Level 1",NULL,NULL
904,5b95a66ba2980c0001c481a6,12,3,473,3,11,11,1,unity-loader,1,NULL,"Level 1",NULL,NULL
905,5b95a66ba2980c0001c481a6,12,2,450,1,12,12,1,unity-loader,0,NULL,"Level 1",NULL,NULL
906,5b95a66ba2980c0001c481a6,12,2,1221,2,12,12,1,unity-loader,1,NULL,,NULL,NULL
907,5b95a66ba2980c0001c481a6,13,3,388,3,1,1,1,unity-loader,1,NULL,"Level 1",NULL,NULL
908,5b95a66ba2980c0001c481a6,13,1,479,0,2,2,1,unity-loader,0,NULL,"Level 1",NULL,NULL
909,5b95a66ba2980c0001c481a6,13,1,1110,1,2,2,1,unity-loader,1,NULL,"Level 1",NULL,NULL
910,5b95a66ba2980c0001c481a6,13,3,481,3,3,3,1,unity-loader,1,NULL,"Level 1",NULL,NULL
911,5b95a66ba2980c0001c481a6,13,2,451,2,4,4,1,unity-loader,1,NULL,"Level 1",NULL,NULL
912,5b95a66ba2980c0001c481a6,13,0,714,0,5,5,1,unity-loader,1,NULL,"Level 1",NULL,NULL
913,5b95a66ba2980c0001c481a6,13,1,555,1,6,6,1,unity-loader,1,NULL,"Level 1",NULL,NULL
914,5b95a66ba2980c0001c481a6,13,0,564,0,7,7,1,unity-loader,1,NULL,"Level 1",NULL,NULL
915,5b95a66ba2980c0001c481a6,13,2,481,3,8,8,1,unity-loader,0,NULL,"Level 1",NULL,NULL
916,5b95a66ba2980c0001c481a6,13,2,1182,2,8,8,1,unity-loader,1,NULL,"Level 1",NULL,NULL
917,5b95a66ba2980c0001c481a6,13,1,445,1,9,9,1,unity-loader,1,NULL,"Level 1",NULL,NULL
918,5b95a66ba2980c0001c481a6,13,0,416,0,10,10,1,unity-loader,1,NULL,"Level 1",NULL,NULL
919,5b95a66ba2980c0001c481a6,13,3,453,3,11,11,1,unity-loader,1,NULL,"Level 1",NULL,NULL
920,5b95a66ba2980c0001c481a6,13,2,502,2,12,12,1,unity-loader,1,NULL,,NULL,NULL
921,5b95a66ba2980c0001c481a6,14,3,548,3,1,1,1,unity-loader,1,NULL,"Level 1",NULL,NULL
922,5b95a66ba2980c0001c481a6,14,1,626,1,2,2,1,unity-loader,1,NULL,"Level 1",NULL,NULL
923,5b95a66ba2980c0001c481a6,14,3,464,3,3,3,1,unity-loader,1,NULL,"Level 1",NULL,NULL
924,5b95a66ba2980c0001c481a6,14,2,548,2,4,4,1,unity-loader,1,NULL,"Level 1",NULL,NULL
925,5b95a66ba2980c0001c481a6,14,0,467,0,5,5,1,unity-loader,1,NULL,"Level 1",NULL,NULL
926,5b95a66ba2980c0001c481a6,14,1,533,1,6,6,1,unity-loader,1,NULL,"Level 1",NULL,NULL
927,5b95a66ba2980c0001c481a6,14,0,513,0,7,7,1,unity-loader,1,NULL,"Level 1",NULL,NULL
928,5b95a66ba2980c0001c481a6,14,2,806,2,8,8,1,unity-loader,1,NULL,"Level 1",NULL,NULL
929,5b95a66ba2980c0001c481a6,14,1,770,1,9,9,1,unity-loader,1,NULL,"Level 1",NULL,NULL
930,5b95a66ba2980c0001c481a6,14,0,409,0,10,10,1,unity-loader,1,NULL,"Level 1",NULL,NULL
931,5b95a66ba2980c0001c481a6,14,3,498,3,11,11,1,unity-loader,1,NULL,"Level 1",NULL,NULL
932,5b95a66ba2980c0001c481a6,14,2,472,2,12,12,1,unity-loader,1,NULL,,NULL,NULL
933,5b95a66ba2980c0001c481a6,15,3,535,3,1,1,1,unity-loader,1,NULL,"Level 1",NULL,NULL
934,5b95a66ba2980c0001c481a6,15,1,306,1,2,2,1,unity-loader,1,NULL,"Level 1",NULL,NULL
935,5b95a66ba2980c0001c481a6,15,3,283,3,3,3,1,unity-loader,1,NULL,"Level 1",NULL,NULL
936,5b95a66ba2980c0001c481a6,15,2,271,2,4,4,1,unity-loader,1,NULL,"Level 1",NULL,NULL
937,5b95a66ba2980c0001c481a6,15,0,258,0,5,5,1,unity-loader,1,NULL,"Level 1",NULL,NULL
938,5b95a66ba2980c0001c481a6,15,1,340,2,6,6,1,unity-loader,0,NULL,"Level 1",NULL,NULL
939,5b95a66ba2980c0001c481a6,15,1,1189,1,6,6,1,unity-loader,1,NULL,"Level 1",NULL,NULL
940,5b95a66ba2980c0001c481a6,15,0,285,0,7,7,1,unity-loader,1,NULL,"Level 1",NULL,NULL
941,5b95a66ba2980c0001c481a6,15,2,451,2,8,8,1,unity-loader,1,NULL,"Level 1",NULL,NULL
942,5b95a66ba2980c0001c481a6,15,1,201,1,9,9,1,unity-loader,1,NULL,"Level 1",NULL,NULL
943,5b95a66ba2980c0001c481a6,15,0,244,0,10,10,1,unity-loader,1,NULL,"Level 1",NULL,NULL
944,5b95a66ba2980c0001c481a6,15,3,334,3,11,11,1,unity-loader,1,NULL,"Level 1",NULL,NULL
945,5b95a66ba2980c0001c481a6,15,2,284,2,12,12,1,unity-loader,1,NULL,,NULL,NULL
946,5b95a66ba2980c0001c481a6,16,3,603,3,1,1,1,unity-loader,1,NULL,"Level 1",NULL,NULL
947,5b95a66ba2980c0001c481a6,16,1,534,1,2,2,1,unity-loader,1,NULL,"Level 1",NULL,NULL
948,5b95a66ba2980c0001c481a6,16,3,250,3,3,3,1,unity-loader,1,NULL,"Level 1",NULL,NULL
949,5b95a66ba2980c0001c481a6,16,2,207,2,4,4,1,unity-loader,1,NULL,"Level 1",NULL,NULL
950,5b95a66ba2980c0001c481a6,16,0,289,0,5,5,1,unity-loader,1,NULL,"Level 1",NULL,NULL
951,5b95a66ba2980c0001c481a6,16,1,411,2,6,6,1,unity-loader,0,NULL,"Level 1",NULL,NULL
952,5b95a66ba2980c0001c481a6,16,1,1139,1,6,6,1,unity-loader,1,NULL,"Level 1",NULL,NULL
953,5b95a66ba2980c0001c481a6,16,0,444,0,7,7,1,unity-loader,1,NULL,"Level 1",NULL,NULL
954,5b95a66ba2980c0001c481a6,16,2,554,2,8,8,1,unity-loader,1,NULL,"Level 1",NULL,NULL
955,5b95a66ba2980c0001c481a6,16,1,270,1,9,9,1,unity-loader,1,NULL,"Level 1",NULL,NULL
956,5b95a66ba2980c0001c481a6,16,0,383,0,10,10,1,unity-loader,1,NULL,"Level 1",NULL,NULL
957,5b95a66ba2980c0001c481a6,16,3,347,3,11,11,1,unity-loader,1,NULL,"Level 1",NULL,NULL
958,5b95a66ba2980c0001c481a6,16,2,277,2,12,12,1,unity-loader,1,NULL,,NULL,NULL
959,5b95a66ba2980c0001c481a6,17,3,409,3,1,1,1,unity-loader,1,NULL,"Level 1",NULL,NULL
960,5b95a66ba2980c0001c481a6,17,1,333,1,2,2,1,unity-loader,1,NULL,"Level 1",NULL,NULL
961,5b95a66ba2980c0001c481a6,17,3,186,3,3,3,1,unity-loader,1,NULL,"Level 1",NULL,NULL
962,5b95a66ba2980c0001c481a6,17,2,348,2,4,4,1,unity-loader,1,NULL,"Level 1",NULL,NULL
963,5b95a66ba2980c0001c481a6,17,0,437,0,5,5,1,unity-loader,1,NULL,"Level 1",NULL,NULL
964,5b95a66ba2980c0001c481a6,17,1,562,1,6,6,1,unity-loader,1,NULL,"Level 1",NULL,NULL
965,5b95a66ba2980c0001c481a6,17,0,304,0,7,7,1,unity-loader,1,NULL,"Level 1",NULL,NULL
966,5b95a66ba2980c0001c481a6,17,2,464,2,8,8,1,unity-loader,1,NULL,"Level 1",NULL,NULL
967,5b95a66ba2980c0001c481a6,17,1,245,0,9,9,1,unity-loader,0,NULL,"Level 1",NULL,NULL
968,5b95a66ba2980c0001c481a6,17,1,1148,1,9,9,1,unity-loader,1,NULL,"Level 1",NULL,NULL
969,5b95a66ba2980c0001c481a6,17,0,361,0,10,10,1,unity-loader,1,NULL,"Level 1",NULL,NULL
970,5b95a66ba2980c0001c481a6,17,3,265,1,11,11,1,unity-loader,0,NULL,"Level 1",NULL,NULL
971,5b95a66ba2980c0001c481a6,17,3,1090,2,11,11,1,unity-loader,0,NULL,"Level 1",NULL,NULL
972,5b95a66ba2980c0001c481a6,17,3,1909,3,11,11,1,unity-loader,1,NULL,"Level 1",NULL,NULL
973,5b95a66ba2980c0001c481a6,17,2,492,2,12,12,1,unity-loader,1,NULL,,NULL,NULL
974,5b95a66ba2980c0001c481a6,18,3,464,3,1,1,1,unity-loader,1,NULL,"Level 1",NULL,NULL
975,5b95a66ba2980c0001c481a6,18,1,472,1,2,2,1,unity-loader,1,NULL,"Level 1",NULL,NULL
976,5b95a66ba2980c0001c481a6,18,3,341,3,3,3,1,unity-loader,1,NULL,"Level 1",NULL,NULL
977,5b95a66ba2980c0001c481a6,18,2,541,2,4,4,1,unity-loader,1,NULL,"Level 1",NULL,NULL
978,5b95a66ba2980c0001c481a6,18,0,312,0,5,5,1,unity-loader,1,NULL,"Level 1",NULL,NULL
979,5b95a66ba2980c0001c481a6,18,1,520,1,6,6,1,unity-loader,1,NULL,"Level 1",NULL,NULL
980,5b95a66ba2980c0001c481a6,18,0,431,0,7,7,1,unity-loader,1,NULL,"Level 1",NULL,NULL
981,5b95a66ba2980c0001c481a6,18,2,209,3,8,8,1,unity-loader,0,NULL,"Level 1",NULL,NULL
982,5b95a66ba2980c0001c481a6,18,2,1206,2,8,8,1,unity-loader,1,NULL,"Level 1",NULL,NULL
983,5b95a66ba2980c0001c481a6,18,1,418,1,9,9,1,unity-loader,1,NULL,"Level 1",NULL,NULL
984,5b95a66ba2980c0001c481a6,18,0,265,0,10,10,1,unity-loader,1,NULL,"Level 1",NULL,NULL
985,5b95a66ba2980c0001c481a6,18,3,368,3,11,11,1,unity-loader,1,NULL,"Level 1",NULL,NULL
986,5b95a66ba2980c0001c481a6,18,2,332,2,12,12,1,unity-loader,1,NULL,,NULL,NULL
987,5b95a66ba2980c0001c481a6,19,3,354,3,1,1,1,unity-loader,1,NULL,"Level 1",NULL,NULL
988,5b95a66ba2980c0001c481a6,19,1,264,1,2,2,1,unity-loader,1,NULL,"Level 1",NULL,NULL
989,5b95a66ba2980c0001c481a6,19,3,186,3,3,3,1,unity-loader,1,NULL,"Level 1",NULL,NULL
990,5b95a66ba2980c0001c481a6,19,2,243,2,4,4,1,unity-loader,1,NULL,"Level 1",NULL,NULL
991,5b95a66ba2980c0001c481a6,19,0,319,0,5,5,1,unity-loader,1,NULL,"Level 1",NULL,NULL
992,5b95a66ba2980c0001c481a6,19,1,535,1,6,6,1,unity-loader,1,NULL,"Level 1",NULL,NULL
993,5b95a66ba2980c0001c481a6,19,0,402,0,7,7,1,unity-loader,1,NULL,"Level 1",NULL,NULL
994,5b95a66ba2980c0001c481a6,19,2,590,2,8,8,1,unity-loader,1,NULL,"Level 1",NULL,NULL
995,5b95a66ba2980c0001c481a6,19,1,314,1,9,9,1,unity-loader,1,NULL,"Level 1",NULL,NULL
996,5b95a66ba2980c0001c481a6,19,0,264,0,10,10,1,unity-loader,1,NULL,"Level 1",NULL,NULL
997,5b95a66ba2980c0001c481a6,19,3,333,3,11,11,1,unity-loader,1,NULL,"Level 1",NULL,NULL
998,5b95a66ba2980c0001c481a6,19,2,320,2,12,12,1,unity-loader,1,NULL,,NULL,NULL
999,5b95a66ba2980c0001c481a6,20,3,479,3,1,1,1,unity-loader,1,NULL,"Level 1",NULL,NULL
1000,5b95a66ba2980c0001c481a6,20,1,284,1,2,2,1,unity-loader,1,NULL,"Level 1",NULL,NULL
1001,5b95a66ba2980c0001c481a6,20,3,347,3,3,3,1,unity-loader,1,NULL,"Level 1",NULL,NULL
1002,5b95a66ba2980c0001c481a6,20,2,277,2,4,4,1,unity-loader,1,NULL,"Level 1",NULL,NULL
1003,5b95a66ba2980c0001c481a6,20,0,444,0,5,5,1,unity-loader,1,NULL,"Level 1",NULL,NULL
1004,5b95a66ba2980c0001c481a6,20,1,487,1,6,6,1,unity-loader,1,NULL,"Level 1",NULL,NULL
1005,5b95a66ba2980c0001c481a6,20,0,486,0,7,7,1,unity-loader,1,NULL,"Level 1",NULL,NULL
1006,5b95a66ba2980c0001c481a6,20,2,401,2,8,8,1,unity-loader,1,NULL,"Level 1",NULL,NULL
1007,5b95a66ba2980c0001c481a6,20,1,382,1,9,9,1,unity-loader,1,NULL,"Level 1",NULL,NULL
1008,5b95a66ba2980c0001c481a6,20,0,313,0,10,10,1,unity-loader,1,NULL,"Level 1",NULL,NULL
1009,5b95a66ba2980c0001c481a6,20,3,308,3,11,11,1,unity-loader,1,NULL,"Level 1",NULL,NULL
1010,5b95a66ba2980c0001c481a6,20,2,341,1,12,12,1,unity-loader,0,NULL,"Level 1",NULL,NULL
1011,5b95a66ba2980c0001c481a6,20,2,1454,2,12,12,1,unity-loader,1,NULL,,NULL,NULL
1012,5b95a66ba2980c0001c481a6,21,3,556,3,1,1,1,unity-loader,1,NULL,"Level 1",NULL,NULL
1013,5b95a66ba2980c0001c481a6,21,1,480,1,2,2,1,unity-loader,1,NULL,"Level 1",NULL,NULL
1014,5b95a66ba2980c0001c481a6,21,3,243,3,3,3,1,unity-loader,1,NULL,"Level 1",NULL,NULL
1015,5b95a66ba2980c0001c481a6,21,2,301,2,4,4,1,unity-loader,1,NULL,"Level 1",NULL,NULL
1016,5b95a66ba2980c0001c481a6,21,0,291,0,5,5,1,unity-loader,1,NULL,"Level 1",NULL,NULL
1017,5b95a66ba2980c0001c481a6,21,1,312,1,6,6,1,unity-loader,1,NULL,"Level 1",NULL,NULL
1018,5b95a66ba2980c0001c481a6,21,0,388,0,7,7,1,unity-loader,1,NULL,"Level 1",NULL,NULL
1019,5b95a66ba2980c0001c481a6,21,2,390,2,8,8,1,unity-loader,1,NULL,"Level 1",NULL,NULL
1020,5b95a66ba2980c0001c481a6,21,1,313,1,9,9,1,unity-loader,1,NULL,"Level 1",NULL,NULL
1021,5b95a66ba2980c0001c481a6,21,0,432,0,10,10,1,unity-loader,1,NULL,"Level 1",NULL,NULL
1022,5b95a66ba2980c0001c481a6,21,3,389,3,11,11,1,unity-loader,1,NULL,"Level 1",NULL,NULL
1023,5b95a66ba2980c0001c481a6,21,2,375,2,12,12,1,unity-loader,1,NULL,,NULL,NULL
1024,5b95a66ba2980c0001c481a6,22,3,208,3,1,1,1,unity-loader,1,NULL,"Level 1",NULL,NULL
1025,5b95a66ba2980c0001c481a6,22,1,436,1,2,2,1,unity-loader,1,NULL,"Level 1",NULL,NULL
1026,5b95a66ba2980c0001c481a6,22,3,304,3,3,3,1,unity-loader,1,NULL,"Level 1",NULL,NULL
1027,5b95a66ba2980c0001c481a6,22,2,301,2,4,4,1,unity-loader,1,NULL,"Level 1",NULL,NULL
1028,5b95a66ba2980c0001c481a6,22,0,286,1,5,5,1,unity-loader,0,NULL,"Level 1",NULL,NULL
1029,5b95a66ba2980c0001c481a6,22,0,1021,0,5,5,1,unity-loader,1,NULL,"Level 1",NULL,NULL
1030,5b95a66ba2980c0001c481a6,22,1,361,2,6,6,1,unity-loader,0,NULL,"Level 1",NULL,NULL
1031,5b95a66ba2980c0001c481a6,22,1,1012,1,6,6,1,unity-loader,1,NULL,"Level 1",NULL,NULL
1032,5b95a66ba2980c0001c481a6,22,0,388,0,7,7,1,unity-loader,1,NULL,"Level 1",NULL,NULL
1033,5b95a66ba2980c0001c481a6,22,2,375,3,8,8,1,unity-loader,0,NULL,"Level 1",NULL,NULL
1034,5b95a66ba2980c0001c481a6,22,2,1172,2,8,8,1,unity-loader,1,NULL,"Level 1",NULL,NULL
1035,5b95a66ba2980c0001c481a6,22,1,264,1,9,9,1,unity-loader,1,NULL,"Level 1",NULL,NULL
1036,5b95a66ba2980c0001c481a6,22,0,360,0,10,10,1,unity-loader,1,NULL,"Level 1",NULL,NULL
1037,5b95a66ba2980c0001c481a6,22,3,429,3,11,11,1,unity-loader,1,NULL,"Level 1",NULL,NULL
1038,5b95a66ba2980c0001c481a6,22,2,396,1,12,12,1,unity-loader,0,NULL,"Level 1",NULL,NULL
1039,5b95a66ba2980c0001c481a6,22,2,1090,2,12,12,1,unity-loader,1,NULL,,NULL,NULL
1040,5b95a66ba2980c0001c481a6,23,3,376,3,1,1,1,unity-loader,1,NULL,"Level 1",NULL,NULL
1041,5b95a66ba2980c0001c481a6,23,1,257,1,2,2,1,unity-loader,1,NULL,"Level 1",NULL,NULL
1042,5b95a66ba2980c0001c481a6,23,3,242,3,3,3,1,unity-loader,1,NULL,"Level 1",NULL,NULL
1043,5b95a66ba2980c0001c481a6,23,2,244,2,4,4,1,unity-loader,1,NULL,"Level 1",NULL,NULL
1044,5b95a66ba2980c0001c481a6,23,0,368,0,5,5,1,unity-loader,1,NULL,"Level 1",NULL,NULL
1045,5b95a66ba2980c0001c481a6,23,1,424,1,6,6,1,unity-loader,1,NULL,"Level 1",NULL,NULL
1046,5b95a66ba2980c0001c481a6,23,0,466,0,7,7,1,unity-loader,1,NULL,"Level 1",NULL,NULL
1047,5b95a66ba2980c0001c481a6,23,2,425,3,8,8,1,unity-loader,0,NULL,"Level 1",NULL,NULL
1048,5b95a66ba2980c0001c481a6,23,2,1278,2,8,8,1,unity-loader,1,NULL,"Level 1",NULL,NULL
1049,5b95a66ba2980c0001c481a6,23,1,235,1,9,9,1,unity-loader,1,NULL,"Level 1",NULL,NULL
1050,5b95a66ba2980c0001c481a6,23,0,535,0,10,10,1,unity-loader,1,NULL,"Level 1",NULL,NULL
1051,5b95a66ba2980c0001c481a6,23,3,339,3,11,11,1,unity-loader,1,NULL,"Level 1",NULL,NULL
1052,5b95a66ba2980c0001c481a6,23,2,340,2,12,12,1,unity-loader,1,NULL,,NULL,NULL
1053,5b95a66ba2980c0001c481a6,24,3,320,3,1,1,1,unity-loader,1,NULL,"Level 1",NULL,NULL
1054,5b95a66ba2980c0001c481a6,24,1,257,1,2,2,1,unity-loader,1,NULL,"Level 1",NULL,NULL
1055,5b95a66ba2980c0001c481a6,24,3,321,3,3,3,1,unity-loader,1,NULL,"Level 1",NULL,NULL
1056,5b95a66ba2980c0001c481a6,24,2,347,2,4,4,1,unity-loader,1,NULL,"Level 1",NULL,NULL
1057,5b95a66ba2980c0001c481a6,24,0,361,0,5,5,1,unity-loader,1,NULL,"Level 1",NULL,NULL
1058,5b95a66ba2980c0001c481a6,24,1,549,1,6,6,1,unity-loader,1,NULL,"Level 1",NULL,NULL
1059,5b95a66ba2980c0001c481a6,24,0,500,0,7,7,1,unity-loader,1,NULL,"Level 1",NULL,NULL
1060,5b95a66ba2980c0001c481a6,24,2,514,2,8,8,1,unity-loader,1,NULL,"Level 1",NULL,NULL
1061,5b95a66ba2980c0001c481a6,24,1,375,1,9,9,1,unity-loader,1,NULL,"Level 1",NULL,NULL
1062,5b95a66ba2980c0001c481a6,24,0,314,0,10,10,1,unity-loader,1,NULL,"Level 1",NULL,NULL
1063,5b95a66ba2980c0001c481a6,24,3,354,3,11,11,1,unity-loader,1,NULL,"Level 1",NULL,NULL
1064,5b95a66ba2980c0001c481a6,24,2,333,2,12,12,1,unity-loader,1,NULL,,NULL,NULL
1065,5b95a66ba2980c0001c481a6,25,3,541,3,1,1,1,unity-loader,1,NULL,"Level 1",NULL,NULL
1066,5b95a66ba2980c0001c481a6,25,1,431,1,2,2,1,unity-loader,1,NULL,"Level 1",NULL,NULL
1067,5b95a66ba2980c0001c481a6,25,3,284,3,3,3,1,unity-loader,1,NULL,"Level 1",NULL,NULL
1068,5b95a66ba2980c0001c481a6,25,2,209,0,4,4,1,unity-loader,0,NULL,"Level 1",NULL,NULL
1069,5b95a66ba2980c0001c481a6,25,2,2207,2,4,4,1,unity-loader,1,NULL,"Level 1",NULL,NULL
1070,5b95a66ba2980c0001c481a6,25,0,354,0,5,5,1,unity-loader,1,NULL,"Level 1",NULL,NULL
1071,5b95a66ba2980c0001c481a6,25,1,402,1,6,6,1,unity-loader,1,NULL,"Level 1",NULL,NULL
1072,5b95a66ba2980c0001c481a6,25,0,376,0,7,7,1,unity-loader,1,NULL,"Level 1",NULL,NULL
1073,5b95a66ba2980c0001c481a6,25,2,353,2,8,8,1,unity-loader,1,NULL,"Level 1",NULL,NULL
1074,5b95a66ba2980c0001c481a6,25,1,277,1,9,9,1,unity-loader,1,NULL,"Level 1",NULL,NULL
1075,5b95a66ba2980c0001c481a6,25,0,333,0,10,10,1,unity-loader,1,NULL,"Level 1",NULL,NULL
1076,5b95a66ba2980c0001c481a6,25,3,259,2,11,11,1,unity-loader,0,NULL,"Level 1",NULL,NULL
1077,5b95a66ba2980c0001c481a6,25,3,1070,3,11,11,1,unity-loader,1,NULL,"Level 1",NULL,NULL
1078,5b95a66ba2980c0001c481a6,25,2,493,2,12,12,1,unity-loader,1,NULL,,NULL,NULL
1079,5b95a66ba2980c0001c481a6,26,3,432,3,1,1,1,unity-loader,1,NULL,"Level 1",NULL,NULL
1080,5b95a66ba2980c0001c481a6,26,1,236,1,2,2,1,unity-loader,1,NULL,"Level 1",NULL,NULL
1081,5b95a66ba2980c0001c481a6,26,3,264,3,3,3,1,unity-loader,1,NULL,"Level 1",NULL,NULL
1082,5b95a66ba2980c0001c481a6,26,2,257,2,4,4,1,unity-loader,1,NULL,"Level 1",NULL,NULL
1083,5b95a66ba2980c0001c481a6,26,0,265,0,5,5,1,unity-loader,1,NULL,"Level 1",NULL,NULL
1084,5b95a66ba2980c0001c481a6,26,1,368,2,6,6,1,unity-loader,0,NULL,"Level 1",NULL,NULL
1085,5b95a66ba2980c0001c481a6,26,1,1465,1,6,6,1,unity-loader,1,NULL,"Level 1",NULL,NULL
1086,5b95a66ba2980c0001c481a6,26,0,369,0,7,7,1,unity-loader,1,NULL,"Level 1",NULL,NULL
1087,5b95a66ba2980c0001c481a6,26,2,264,2,8,8,1,unity-loader,1,NULL,"Level 1",NULL,NULL
1088,5b95a66ba2980c0001c481a6,26,1,273,1,9,9,1,unity-loader,1,NULL,"Level 1",NULL,NULL
1089,5b95a66ba2980c0001c481a6,26,0,395,0,10,10,1,unity-loader,1,NULL,"Level 1",NULL,NULL
1090,5b95a66ba2980c0001c481a6,26,3,277,3,11,11,1,unity-loader,1,NULL,"Level 1",NULL,NULL
1091,5b95a66ba2980c0001c481a6,26,2,292,1,12,12,1,unity-loader,0,NULL,"Level 1",NULL,NULL
1092,5b95a66ba2980c0001c481a6,26,2,1062,2,12,12,1,unity-loader,1,NULL,,NULL,NULL
1093,5b95a66ba2980c0001c481a6,27,3,756,3,1,1,1,unity-loader,1,NULL,"Level 1",NULL,NULL
1094,5b95a66ba2980c0001c481a6,27,1,554,1,2,2,1,unity-loader,1,NULL,"Level 1",NULL,NULL
1095,5b95a66ba2980c0001c481a6,27,3,500,3,3,3,1,unity-loader,1,NULL,"Level 1",NULL,NULL
1096,5b95a66ba2980c0001c481a6,27,2,520,2,4,4,1,unity-loader,1,NULL,"Level 1",NULL,NULL
1097,5b95a66ba2980c0001c481a6,27,0,452,0,5,5,1,unity-loader,1,NULL,"Level 1",NULL,NULL
1098,5b95a66ba2980c0001c481a6,27,1,564,1,6,6,1,unity-loader,1,NULL,"Level 1",NULL,NULL
1099,5b95a66ba2980c0001c481a6,27,0,403,0,7,7,1,unity-loader,1,NULL,"Level 1",NULL,NULL
1100,5b95a66ba2980c0001c481a6,27,2,438,3,8,8,1,unity-loader,0,NULL,"Level 1",NULL,NULL
1101,5b95a66ba2980c0001c481a6,27,2,1311,2,8,8,1,unity-loader,1,NULL,"Level 1",NULL,NULL
1102,5b95a66ba2980c0001c481a6,27,1,410,1,9,9,1,unity-loader,1,NULL,"Level 1",NULL,NULL
1103,5b95a66ba2980c0001c481a6,27,0,415,0,10,10,1,unity-loader,1,NULL,"Level 1",NULL,NULL
1104,5b95a66ba2980c0001c481a6,27,3,1237,2,11,11,1,unity-loader,0,NULL,"Level 1",NULL,NULL
1105,5b95a66ba2980c0001c481a6,27,3,1792,3,11,11,1,unity-loader,1,NULL,"Level 1",NULL,NULL
1106,5b95a66ba2980c0001c481a6,27,2,416,2,12,12,1,unity-loader,1,NULL,,NULL,NULL
1107,5b95a66ba2980c0001c481a6,28,3,375,3,1,1,1,unity-loader,1,NULL,"Level 1",NULL,NULL
1108,5b95a66ba2980c0001c481a6,28,1,737,0,2,2,1,unity-loader,0,NULL,"Level 1",NULL,NULL
1109,5b95a66ba2980c0001c481a6,28,1,1353,1,2,2,1,unity-loader,1,NULL,"Level 1",NULL,NULL
1110,5b95a66ba2980c0001c481a6,28,3,306,3,3,3,1,unity-loader,1,NULL,"Level 1",NULL,NULL
1111,5b95a66ba2980c0001c481a6,28,2,429,2,4,4,1,unity-loader,1,NULL,"Level 1",NULL,NULL
1112,5b95a66ba2980c0001c481a6,28,0,520,0,5,5,1,unity-loader,1,NULL,"Level 1",NULL,NULL
1113,5b95a66ba2980c0001c481a6,28,1,327,1,6,6,1,unity-loader,1,NULL,"Level 1",NULL,NULL
1114,5b95a66ba2980c0001c481a6,28,0,318,0,7,7,1,unity-loader,1,NULL,"Level 1",NULL,NULL
1115,5b95a66ba2980c0001c481a6,28,2,590,2,8,8,1,unity-loader,1,NULL,"Level 1",NULL,NULL
1116,5b95a66ba2980c0001c481a6,28,1,459,1,9,9,1,unity-loader,1,NULL,"Level 1",NULL,NULL
1117,5b95a66ba2980c0001c481a6,28,0,243,0,10,10,1,unity-loader,1,NULL,"Level 1",NULL,NULL
1118,5b95a66ba2980c0001c481a6,28,3,452,3,11,11,1,unity-loader,1,NULL,"Level 1",NULL,NULL
1119,5b95a66ba2980c0001c481a6,28,2,381,2,12,12,1,unity-loader,1,NULL,,NULL,NULL
1120,5b95a66ba2980c0001c481a6,29,3,486,3,1,1,1,unity-loader,1,NULL,"Level 1",NULL,NULL
1121,5b95a66ba2980c0001c481a6,29,1,682,0,2,2,1,unity-loader,0,NULL,"Level 1",NULL,NULL
1122,5b95a66ba2980c0001c481a6,29,1,1313,1,2,2,1,unity-loader,1,NULL,"Level 1",NULL,NULL
1123,5b95a66ba2980c0001c481a6,29,3,465,3,3,3,1,unity-loader,1,NULL,"Level 1",NULL,NULL
1124,5b95a66ba2980c0001c481a6,29,2,298,2,4,4,1,unity-loader,1,NULL,"Level 1",NULL,NULL
1125,5b95a66ba2980c0001c481a6,29,0,388,0,5,5,1,unity-loader,1,NULL,"Level 1",NULL,NULL
1126,5b95a66ba2980c0001c481a6,29,1,326,1,6,6,1,unity-loader,1,NULL,"Level 1",NULL,NULL
1127,5b95a66ba2980c0001c481a6,29,0,347,0,7,7,1,unity-loader,1,NULL,"Level 1",NULL,NULL
1128,5b95a66ba2980c0001c481a6,29,2,487,2,8,8,1,unity-loader,1,NULL,"Level 1",NULL,NULL
1129,5b95a66ba2980c0001c481a6,29,1,514,0,9,9,1,unity-loader,0,NULL,"Level 1",NULL,NULL
1130,5b95a66ba2980c0001c481a6,29,1,1181,1,9,9,1,unity-loader,1,NULL,"Level 1",NULL,NULL
1131,5b95a66ba2980c0001c481a6,29,0,348,0,10,10,1,unity-loader,1,NULL,"Level 1",NULL,NULL
1132,5b95a66ba2980c0001c481a6,29,3,382,3,11,11,1,unity-loader,1,NULL,"Level 1",NULL,NULL
1133,5b95a66ba2980c0001c481a6,29,2,415,2,12,12,1,unity-loader,1,NULL,,NULL,NULL
1134,5b95a66ba2980c0001c481a6,30,3,354,3,1,1,1,unity-loader,1,NULL,"Level 1",NULL,NULL
1135,5b95a66ba2980c0001c481a6,30,1,325,1,2,2,1,unity-loader,1,NULL,"Level 1",NULL,NULL
1136,5b95a66ba2980c0001c481a6,30,3,244,3,3,3,1,unity-loader,1,NULL,"Level 1",NULL,NULL
1137,5b95a66ba2980c0001c481a6,30,2,271,2,4,4,1,unity-loader,1,NULL,"Level 1",NULL,NULL
1138,5b95a66ba2980c0001c481a6,30,0,284,0,5,5,1,unity-loader,1,NULL,"Level 1",NULL,NULL
1139,5b95a66ba2980c0001c481a6,30,1,345,1,6,6,1,unity-loader,1,NULL,"Level 1",NULL,NULL
1140,5b95a66ba2980c0001c481a6,30,0,346,0,7,7,1,unity-loader,1,NULL,"Level 1",NULL,NULL
